trials.thisRepN,trials.thisTrialN,trials.thisN,trials.thisIndex,thisRow.t,notes,introduction.started,text.started,key_resp.started,introduction.stopped,key_resp.keys,key_resp.rt,key_resp.duration,trial.started,letter_grid.started,letter_grid.stopped,row_cue.started,row_cue.stopped,trial.stopped,response_routine.started,response.started,response.stopped,response_routine.stopped,response.keys,Cued Row,Correct Row,Participant Response,Is Correct,response.rt,response.duration,participant,session,date,expName,psychopyVersion,frameRate,expStart,
,,,,,,0.0028040995821356773,0.00768259959295392,0.00768259959295392,1.9508665995672345,space,1.9322435995563865,None,,,,,,,,,,,,,,,,,,040889,001,2024-11-20_15h12.06.838,DelayedPartialReportMethod,2024.1.5,None,2024-11-20 15h12.11.665974 +0530,
0,0,0,0,1.9670120999217033,,,,,,,,,1.953068499919027,1.9670120999217033,2.476496699731797,2.960853699594736,3.9616007995791733,3.9456732999533415,3.945689999964088,3.9616007995791733,5.46310649998486,5.447404899634421,None,2,VFLG,None,False,,,040889,001,2024-11-20_15h12.06.838,DelayedPartialReportMethod,2024.1.5,None,2024-11-20 15h12.11.665974 +0530,
1,0,1,0,5.46310649998486,,,,,,,,,5.448134999722242,5.46310649998486,5.963740199804306,6.464003599714488,7.465266699902713,7.449395599775016,7.449410599656403,7.465266699902713,8.96687089977786,8.951234699692577,['u'],1,JNKO,['u'],False,[0.10795440012589097],[0.07619859976693988],040889,001,2024-11-20_15h12.06.838,DelayedPartialReportMethod,2024.1.5,None,2024-11-20 15h12.11.665974 +0530,
2,0,2,0,8.96687089977786,,,,,,,,,8.952616399619728,8.96687089977786,9.467657999601215,9.951371199917048,,10.960408199578524,10.960426299832761,10.968941499944776,,12.454389399848878,"['n', 'i']",0,NTZB,"['n', 'i']",False,"[0.24541799956932664, 0.5164890997111797]","[0.06932340003550053, 0.08600739995017648]",040889,001,2024-11-20_15h12.06.838,DelayedPartialReportMethod,2024.1.5,None,2024-11-20 15h12.11.665974 +0530,
3,0,3,0,12.470789099577814,,,,,,,,,12.455457899719477,12.470789099577814,12.971601799596101,13.455799499992281,14.455980599857867,14.440545999910682,14.440569499973208,14.455980599857867,15.958021799568087,15.942529199644923,"['s', 'w']",2,SOZI,"['s', 'w']",False,"[0.08169239992275834, 0.2806400000117719]","[0.088986000046134, 0.0758697995916009]",040889,001,2024-11-20_15h12.06.838,DelayedPartialReportMethod,2024.1.5,None,2024-11-20 15h12.11.665974 +0530,
4,0,4,0,15.958021799568087,,,,,,,,,15.943362199701369,15.958021799568087,16.458294799551368,16.95911349961534,17.960849499795586,17.94469179958105,17.94474079972133,17.960849499795586,19.462081499863416,19.446216199547052,['v'],2,XSLX,['v'],False,[0.5811938000842929],[0.0774050997570157],040889,001,2024-11-20_15h12.06.838,DelayedPartialReportMethod,2024.1.5,None,2024-11-20 15h12.11.665974 +0530,
5,0,5,0,19.462081499863416,,,,,,,,,19.4472900996916,19.462081499863416,19.96251029986888,20.46301669999957,21.464308199938387,21.44864569976926,21.448660799767822,21.464308199938387,22.965969799552113,22.950289099942893,"['i', 'j']",0,USVE,"['i', 'j']",False,"[0.46141220023855567, 0.9148953002877533]","[0.08034420013427734, 0.06945979967713356]",040889,001,2024-11-20_15h12.06.838,DelayedPartialReportMethod,2024.1.5,None,2024-11-20 15h12.11.665974 +0530,
6,0,6,0,22.965969799552113,,,,,,,,,22.951357499696314,22.965969799552113,23.46654009958729,23.95019009988755,24.951210799627006,24.93546409998089,24.935477999970317,24.951210799627006,26.45307119982317,26.436947099864483,None,2,DFJU,None,False,,,040889,001,2024-11-20_15h12.06.838,DelayedPartialReportMethod,2024.1.5,None,2024-11-20 15h12.11.665974 +0530,
7,0,7,0,26.45307119982317,,,,,,,,,26.4382362999022,26.45307119982317,26.953790699597448,27.45435079978779,28.45527909975499,28.439236699603498,28.439252899959683,28.45527909975499,29.956900199875236,29.940951199736446,['g'],1,GPZH,['g'],False,[0.47303490014746785],[0.08245470002293587],040889,001,2024-11-20_15h12.06.838,DelayedPartialReportMethod,2024.1.5,None,2024-11-20 15h12.11.665974 +0530,
8,0,8,0,29.956900199875236,,,,,,,,,29.94180679973215,29.956900199875236,30.457335899583995,30.958363799843937,31.959127999842167,31.943357899785042,31.943414399866015,31.959127999842167,33.4605254996568,33.444828799925745,['u'],1,ULOU,['u'],False,[0.22560810018330812],[0.0793682998046279],040889,001,2024-11-20_15h12.06.838,DelayedPartialReportMethod,2024.1.5,None,2024-11-20 15h12.11.665974 +0530,
9,0,9,0,33.4605254996568,,,,,,,,,33.445684999693185,33.4605254996568,33.96136719966307,34.461673699785024,35.462920599617064,35.447301199659705,35.447317499667406,35.462920599617064,36.96448149997741,36.94865699997172,"['f', 'p']",2,FKDV,"['f', 'p']",False,"[0.7642341000027955, 1.0373585997149348]","[0.08493939973413944, 0.07338560000061989]",040889,001,2024-11-20_15h12.06.838,DelayedPartialReportMethod,2024.1.5,None,2024-11-20 15h12.11.665974 +0530,
10,0,10,0,36.96448149997741,,,,,,,,,36.94979989994317,36.96448149997741,37.464916799683124,37.96560179954395,38.966970899607986,38.950955799780786,38.95097249979153,38.966970899607986,,40.451912799850106,"['j', 'u']",1,JUQV,"['j', 'u']",False,"[0.0445702001452446, 0.2319622002542019]","[0.08643870009109378, 0.0590548999607563]",040889,001,2024-11-20_15h12.06.838,DelayedPartialReportMethod,2024.1.5,None,2024-11-20 15h12.11.665974 +0530,
11,0,11,0,40.468372899573296,,,,,,,,,40.453006099909544,40.468372899573296,40.969334499910474,41.45285029988736,42.45389139978215,42.43799399957061,42.43803299963474,42.45389139978215,43.955582599621266,43.93959949957207,['j'],2,JKMI,['j'],False,[0.27157780015841126],[0.06341209961101413],040889,001,2024-11-20_15h12.06.838,DelayedPartialReportMethod,2024.1.5,None,2024-11-20 15h12.11.665974 +0530,
12,0,12,0,43.955582599621266,,,,,,,,,43.94068799959496,43.955582599621266,44.45634619984776,44.95696679968387,45.95805829996243,45.94230359978974,45.94232919998467,45.95805829996243,47.459523199591786,47.443228099960834,"['m', 'c']",0,MCPB,"['m', 'c']",False,"[0.1484117996878922, 0.8252658997662365]","[0.075235600117594, 0.08529740013182163]",040889,001,2024-11-20_15h12.06.838,DelayedPartialReportMethod,2024.1.5,None,2024-11-20 15h12.11.665974 +0530,
13,0,13,0,47.459523199591786,,,,,,,,,47.4441010998562,47.459523199591786,47.959731499664485,48.4601537999697,49.462002999614924,49.44570579985157,49.445725799538195,49.462002999614924,50.96327869966626,50.947720899712294,None,2,ONMS,None,False,,,040889,001,2024-11-20_15h12.06.838,DelayedPartialReportMethod,2024.1.5,None,2024-11-20 15h12.11.665974 +0530,
14,0,14,0,50.96327869966626,,,,,,,,,50.948288299608976,50.96327869966626,51.46407079976052,51.964647099841386,52.965749399736524,52.949924499727786,52.94993989961222,52.965749399736524,,54.45117189968005,"['r', 'e']",1,RREV,"['r', 'e']",False,"[0.08207520004361868, 0.19532349985092878]","[0.054189799819141626, 0.07761480007320642]",040889,001,2024-11-20_15h12.06.838,DelayedPartialReportMethod,2024.1.5,None,2024-11-20 15h12.11.665974 +0530,
15,0,15,0,54.4670053999871,,,,,,,,,54.45208219997585,54.4670053999871,54.96783719956875,55.45204759994522,56.452754699625075,56.43683759961277,56.43685319973156,56.452754699625075,57.95442359987646,57.93848319957033,"['r', 'v']",1,PVKS,"['r', 'v']",False,"[0.3251669998280704, 0.522936699911952]","[0.07682330021634698, 0.0800522998906672]",040889,001,2024-11-20_15h12.06.838,DelayedPartialReportMethod,2024.1.5,None,2024-11-20 15h12.11.665974 +0530,
16,0,16,0,57.95442359987646,,,,,,,,,57.93962669977918,57.95442359987646,58.454944299999624,58.95557749969885,59.95658319955692,59.94068319955841,59.94069979991764,59.95658319955692,61.4584791995585,61.44198599969968,"['h', 'k']",1,HKBL,"['h', 'k']",False,"[0.29828139999881387, 1.0403705001808703]","[0.07029050029814243, 0.06902269972488284]",040889,001,2024-11-20_15h12.06.838,DelayedPartialReportMethod,2024.1.5,None,2024-11-20 15h12.11.665974 +0530,
17,0,17,0,61.4584791995585,,,,,,,,,61.44279829971492,61.4584791995585,61.958935799542814,62.45922729978338,63.460676099639386,63.44452079990879,63.44455389957875,63.460676099639386,64.96211469965056,64.9462741999887,"['l', 'j']",1,LJUS,"['l', 'j']",False,"[0.40915130032226443, 0.6630766000598669]","[0.06664799991995096, 0.08150999993085861]",040889,001,2024-11-20_15h12.06.838,DelayedPartialReportMethod,2024.1.5,None,2024-11-20 15h12.11.665974 +0530,
18,0,18,0,64.96211469965056,,,,,,,,,64.9473462998867,64.96211469965056,65.46284169983119,65.9633220997639,66.96427669981495,66.94844559999183,66.94846129976213,66.96427669981495,68.46608469961211,68.45003419974819,"['j', 'f']",1,JFTL,"['j', 'f']",False,"[0.3239710000343621, 0.6918790000490844]","[0.07498220028355718, 0.08252379996702075]",040889,001,2024-11-20_15h12.06.838,DelayedPartialReportMethod,2024.1.5,None,2024-11-20 15h12.11.665974 +0530,
19,0,19,0,68.46608469961211,,,,,,,,,68.45087849954143,68.46608469961211,68.96655299980193,69.45051529956982,70.4517468996346,70.43579349992797,70.43581249983981,70.4517468996346,71.95306449988857,71.93731349986047,['e'],0,NPWX,['e'],False,[0.059546499978750944],[0.07879299996420741],040889,001,2024-11-20_15h12.06.838,DelayedPartialReportMethod,2024.1.5,None,2024-11-20 15h12.11.665974 +0530,
20,0,20,0,71.95306449988857,,,,,,,,,71.93815889954567,71.95306449988857,72.45368859963492,72.95440589962527,73.95514359977096,73.93873059982434,73.93874919973314,73.95514359977096,75.45694659976289,75.4412413998507,"['b', 'a']",1,BAJD,"['b', 'a']",False,"[0.07298950012773275, 0.25216230005025864]","[0.07908569974824786, 0.07009250018745661]",040889,001,2024-11-20_15h12.06.838,DelayedPartialReportMethod,2024.1.5,None,2024-11-20 15h12.11.665974 +0530,
21,0,21,0,75.45694659976289,,,,,,,,,75.44225779967383,75.45694659976289,75.95850349962711,76.45808209991083,77.45922359963879,77.44358309963718,77.44359959987924,77.45922359963879,78.96085999999195,78.94483289960772,"['j', 'u']",0,WJLG,"['j', 'u']",False,"[0.22846550028771162, 0.39836789993569255]","[0.07488529989495873, 0.06188050005584955]",040889,001,2024-11-20_15h12.06.838,DelayedPartialReportMethod,2024.1.5,None,2024-11-20 15h12.11.665974 +0530,
22,0,22,0,78.96085999999195,,,,,,,,,78.94567869976163,78.96085999999195,79.46138979960233,79.96182399988174,80.96318839956075,80.94732989976183,80.94734809966758,80.96318839956075,82.46452109981328,82.44901519967243,"['i', 'r']",0,IRNR,"['i', 'r']",False,"[0.07509829988703132, 0.3562844996340573]","[0.07998269982635975, 0.055986900348216295]",040889,001,2024-11-20_15h12.06.838,DelayedPartialReportMethod,2024.1.5,None,2024-11-20 15h12.11.665974 +0530,
23,0,23,0,82.46452109981328,,,,,,,,,82.45010879961774,82.46452109981328,82.96564889978617,83.46604729956016,84.46694119973108,84.45129839982837,84.4513151999563,84.46694119973108,,85.95178609993309,['b'],2,GGPJ,['b'],False,[0.07858350034803152],[0.0732837999239564],040889,001,2024-11-20_15h12.06.838,DelayedPartialReportMethod,2024.1.5,None,2024-11-20 15h12.11.665974 +0530,
24,0,24,0,85.9685922996141,,,,,,,,,85.95283099962398,85.9685922996141,86.46901689982042,86.95293609984219,87.95422039972618,87.93806379986927,87.93808049988002,87.95422039972618,89.45591779984534,89.43954679975286,['h'],0,XHFQ,['h'],False,[0.8739660996943712],[0.08289620000869036],040889,001,2024-11-20_15h12.06.838,DelayedPartialReportMethod,2024.1.5,None,2024-11-20 15h12.11.665974 +0530,
25,0,25,0,89.45591779984534,,,,,,,,,89.4403636995703,89.45591779984534,89.95633979979903,90.45688769966364,91.45778649998829,91.44213999994099,91.44215639960021,91.45778649998829,92.95962699968368,92.94343389989808,['h'],1,MMKB,['h'],False,[0.30599340004846454],[0.08408810012042522],040889,001,2024-11-20_15h12.06.838,DelayedPartialReportMethod,2024.1.5,None,2024-11-20 15h12.11.665974 +0530,
26,0,26,0,92.95962699968368,,,,,,,,,92.94431359972805,92.95962699968368,93.46031019976363,93.9604853997007,94.96159059973434,94.94577979994938,94.94579699961469,94.96159059973434,96.46321489987895,96.44762619957328,"['u', 'o']",0,KSDA,"['u', 'o']",False,"[0.14346899976953864, 0.514752599876374]","[0.08755300007760525, 0.06920009991154075]",040889,001,2024-11-20_15h12.06.838,DelayedPartialReportMethod,2024.1.5,None,2024-11-20 15h12.11.665974 +0530,
27,0,27,0,96.46321489987895,,,,,,,,,96.44995349971578,96.46321489987895,96.96466769976541,97.46455549960956,98.46554089989513,98.44993299990892,98.44994869967923,98.46554089989513,,99.95120819984004,"['f', 's']",1,FSQE,"['f', 's']",False,"[0.3241347000002861, 0.49382880004122853]","[0.08934910036623478, 0.08087139995768666]",040889,001,2024-11-20_15h12.06.838,DelayedPartialReportMethod,2024.1.5,None,2024-11-20 15h12.11.665974 +0530,
28,0,28,0,99.96723109995946,,,,,,,,,99.95315149985254,99.96723109995946,100.46780779957771,100.95174559997395,101.95285839959979,101.93736969958991,101.93738659983501,101.95285839959979,103.45452169980854,103.43885189993307,"['h', 'e']",0,SHSA,"['h', 'e']",False,"[0.5793389999307692, 1.012043199967593]","[0.07339629996567965, 0.09133309964090586]",040889,001,2024-11-20_15h12.06.838,DelayedPartialReportMethod,2024.1.5,None,2024-11-20 15h12.11.665974 +0530,
29,0,29,0,103.45452169980854,,,,,,,,,103.43969629984349,103.45452169980854,103.95505259977654,104.45565849961713,105.45723319984972,105.44108119979501,105.44109959993511,105.45723319984972,106.95827349973843,106.94235629960895,"['i', 'b']",1,IUWZ,"['i', 'b']",False,"[0.1400715997442603, 0.6189731997437775]","[0.07544889999553561, 0.07270940020680428]",040889,001,2024-11-20_15h12.06.838,DelayedPartialReportMethod,2024.1.5,None,2024-11-20 15h12.11.665974 +0530,
30,0,30,0,106.95827349973843,,,,,,,,,106.94342409959063,106.95827349973843,107.45899929990992,107.96011119987816,108.96086339978501,108.94519759994,108.94521859986708,108.96086339978501,110.46197069995105,110.44643829995766,"['u', 'w']",1,UWIL,"['u', 'w']",False,"[0.6534636002033949, 0.8633908000774682]","[0.08568189991638064, 0.07848670007660985]",040889,001,2024-11-20_15h12.06.838,DelayedPartialReportMethod,2024.1.5,None,2024-11-20 15h12.11.665974 +0530,
31,0,31,0,110.46197069995105,,,,,,,,,110.44855049997568,110.46197069995105,110.96270039957017,111.46344439964741,112.46441039955243,112.44878679979593,112.44880469981581,112.46441039955243,113.96598209999502,113.95012979954481,"['f', 'w']",1,FKMU,"['f', 'w']",False,"[0.34066969994455576, 0.9019351000897586]","[0.07814719993621111, 0.05938349990174174]",040889,001,2024-11-20_15h12.06.838,DelayedPartialReportMethod,2024.1.5,None,2024-11-20 15h12.11.665974 +0530,
32,0,32,0,113.96598209999502,,,,,,,,,113.95121569978073,113.96598209999502,114.46668139984831,114.95045049954206,115.95186829986051,115.9357413998805,115.93575979955494,115.95186829986051,117.4530664999038,117.43819219991565,['y'],0,DYFY,['y'],False,[0.3013963997364044],[0.08141029998660088],040889,001,2024-11-20_15h12.06.838,DelayedPartialReportMethod,2024.1.5,None,2024-11-20 15h12.11.665974 +0530,
33,0,33,0,117.4530664999038,,,,,,,,,117.43931039981544,117.4530664999038,117.95366359967738,118.4545864998363,119.45575819956139,119.43976239999756,119.4397786995396,119.45575819956139,120.95702699990943,120.94134619971737,"['y', 'i']",0,YIJH,"['y', 'i']",False,"[0.20986300008371472, 0.5739063997752964]","[0.08013619994744658, 0.06961210025474429]",040889,001,2024-11-20_15h12.06.838,DelayedPartialReportMethod,2024.1.5,None,2024-11-20 15h12.11.665974 +0530,
34,0,34,0,120.95702699990943,,,,,,,,,120.9421644997783,120.95702699990943,121.4578101998195,121.95842399960384,122.95916139986366,122.94358219997957,122.94359859963879,122.95916139986366,124.46095229964703,124.44503389997408,"['h', 'y']",1,IVAM,"['h', 'y']",False,"[0.6510808002203703, 0.9734057998284698]","[0.0825114999897778, 0.07993170013651252]",040889,001,2024-11-20_15h12.06.838,DelayedPartialReportMethod,2024.1.5,None,2024-11-20 15h12.11.665974 +0530,
35,0,35,0,124.46095229964703,,,,,,,,,124.44589439965785,124.46095229964703,124.96156719978899,125.46211709966883,126.46351989964023,126.44738289993256,126.44739789981395,126.46351989964023,127.96498369984329,127.94894589995965,"['y', 'u']",1,VUFJ,"['y', 'u']",False,"[0.10230809962376952, 0.36296809976920485]","[0.07973160035908222, 0.07208020007237792]",040889,001,2024-11-20_15h12.06.838,DelayedPartialReportMethod,2024.1.5,None,2024-11-20 15h12.11.665974 +0530,
36,0,36,0,127.96498369984329,,,,,,,,,127.94977139960974,127.96498369984329,128.46561579965055,128.9665051996708,129.9671626999043,129.95103909960017,129.9510540999472,129.9671626999043,,131.4522555996664,"['c', 'p']",2,TBUH,"['c', 'p']",False,"[0.36082709999755025, 0.8194523002021015]","[0.08930699992924929, 0.08315439987927675]",040889,001,2024-11-20_15h12.06.838,DelayedPartialReportMethod,2024.1.5,None,2024-11-20 15h12.11.665974 +0530,
37,0,37,0,131.46835039975122,,,,,,,,,131.45321519998834,131.46835039975122,131.96921379957348,132.45320419967175,133.45397679973394,133.4383384999819,133.43835359998047,133.45397679973394,134.9558772998862,134.93994779977947,"['f', 'c']",1,FCPB,"['f', 'c']",False,"[0.1641436996869743, 0.3841681000776589]","[0.07449900032952428, 0.07243789965286851]",040889,001,2024-11-20_15h12.06.838,DelayedPartialReportMethod,2024.1.5,None,2024-11-20 15h12.11.665974 +0530,
38,0,38,0,134.9558772998862,,,,,,,,,134.94076269958168,134.9558772998862,135.45657129958272,135.95685769990087,136.95818489976227,136.94277579989284,136.94279669970274,136.95818489976227,138.46018989989534,138.44418969983235,['o'],0,UQMU,['o'],False,[0.14220550004392862],[0.07632749993354082],040889,001,2024-11-20_15h12.06.838,DelayedPartialReportMethod,2024.1.5,None,2024-11-20 15h12.11.665974 +0530,
39,0,39,0,138.46018989989534,,,,,,,,,138.4451620997861,138.46018989989534,138.96048969961703,139.4605296999216,140.461199299898,140.44576219981536,140.44577859994024,140.461199299898,141.9634540998377,141.9477778999135,['n'],2,OKSX,['n'],False,[0.04729310004040599],[0.07268959982320666],040889,001,2024-11-20_15h12.06.838,DelayedPartialReportMethod,2024.1.5,None,2024-11-20 15h12.11.665974 +0530,
40,0,40,0,141.9634540998377,,,,,,,,,141.94865459995344,141.9634540998377,142.4641369995661,142.9646070995368,143.9658741997555,143.95007519982755,143.95008999994025,143.9658741997555,,145.4512128997594,"['u', 'o']",1,OQOH,"['u', 'o']",False,"[0.14574679965153337, 0.3521216996014118]","[0.07519460003823042, 0.07069510035216808]",040889,001,2024-11-20_15h12.06.838,DelayedPartialReportMethod,2024.1.5,None,2024-11-20 15h12.11.665974 +0530,
41,0,41,0,145.46755269961432,,,,,,,,,145.45253609959036,145.46755269961432,145.96825879998505,146.4517528996803,147.45302679995075,147.43732549995184,147.43733959970996,147.45302679995075,148.9547666995786,148.93867859989405,['x'],0,NKKB,['x'],False,[0.7102294000796974],[0.07118530012667179],040889,001,2024-11-20_15h12.06.838,DelayedPartialReportMethod,2024.1.5,None,2024-11-20 15h12.11.665974 +0530,
42,0,42,0,148.9547666995786,,,,,,,,,148.9397401995957,148.9547666995786,149.45527129992843,149.95601189974695,150.9570567999035,150.94152579968795,150.94154079956934,150.9570567999035,152.4585642996244,152.44274709979072,"['m', 'r']",1,MMRJ,"['m', 'r']",False,"[0.09363330015912652, 0.25168300000950694]","[0.07503489963710308, 0.09020090010017157]",040889,001,2024-11-20_15h12.06.838,DelayedPartialReportMethod,2024.1.5,None,2024-11-20 15h12.11.665974 +0530,
43,0,43,0,152.4585642996244,,,,,,,,,152.4438676997088,152.4585642996244,152.95904469955713,153.45957449963316,154.4605260998942,154.44480869965628,154.44482539966702,154.4605260998942,155.96233399957418,155.94640369992703,"['f', 'a']",2,FSAY,"['f', 'a']",False,"[0.7657792996615171, 0.8644693000242114]","[0.07301040040329099, 0.07167229987680912]",040889,001,2024-11-20_15h12.06.838,DelayedPartialReportMethod,2024.1.5,None,2024-11-20 15h12.11.665974 +0530,
44,0,44,0,155.96233399957418,,,,,,,,,155.94725719979033,155.96233399957418,156.46291039977223,156.96351579995826,157.9642628999427,157.94827909953892,157.9482991998084,157.9642628999427,159.46602329984307,159.45052749989554,"['k', 'd']",0,MQVZ,"['k', 'd']",False,"[0.48447229992598295, 0.5817017001099885]","[0.08481759997084737, 0.0878129000775516]",040889,001,2024-11-20_15h12.06.838,DelayedPartialReportMethod,2024.1.5,None,2024-11-20 15h12.11.665974 +0530,
45,0,45,0,159.46602329984307,,,,,,,,,159.45159549964592,159.46602329984307,159.9664337998256,160.45083949994296,161.45181699981913,161.43644089996815,161.43646009964868,161.45181699981913,162.95332889957353,162.93745229998603,['b'],1,OBDJ,['b'],False,[0.1675579003058374],[0.07361159985885024],040889,001,2024-11-20_15h12.06.838,DelayedPartialReportMethod,2024.1.5,None,2024-11-20 15h12.11.665974 +0530,
46,0,46,0,162.95332889957353,,,,,,,,,162.93830879963934,162.95332889957353,163.45414859987795,163.95454069972038,164.95571689959615,164.93977169971913,164.93978819996119,164.95571689959615,166.45726219983771,166.44086979981512,"['t', 'a']",0,TKCD,"['t', 'a']",False,"[0.0511035998351872, 0.19061690010130405]","[0.08083150023594499, 0.0748866000212729]",040889,001,2024-11-20_15h12.06.838,DelayedPartialReportMethod,2024.1.5,None,2024-11-20 15h12.11.665974 +0530,
47,0,47,0,166.45726219983771,,,,,,,,,166.44220289960504,166.45726219983771,166.95838989969343,167.4583426997997,168.4587407996878,168.44325799960643,168.44327819999307,168.4587407996878,169.96107499999925,169.94593669986352,['f'],1,BFTA,['f'],False,[0.911795400083065],[0.07466219970956445],040889,001,2024-11-20_15h12.06.838,DelayedPartialReportMethod,2024.1.5,None,2024-11-20 15h12.11.665974 +0530,
48,0,48,0,169.96107499999925,,,,,,,,,169.94675509957597,169.96107499999925,170.46179699990898,170.96221999963745,171.96338179986924,171.94769549975172,171.94771229987964,171.96338179986924,173.46507589984685,173.4492229996249,['s'],1,SBHU,['s'],False,[0.014398599974811077],[0.07022619992494583],040889,001,2024-11-20_15h12.06.838,DelayedPartialReportMethod,2024.1.5,None,2024-11-20 15h12.11.665974 +0530,
49,0,49,0,173.46507589984685,,,,,,,,,173.45007989974692,173.46507589984685,173.96597339957952,174.46597339957952,175.46751139964908,175.4512121998705,175.45122719975188,175.46751139964908,,176.95207069953904,['x'],2,BCRX,['x'],False,[0.3709102999418974],[0.08596990024670959],040889,001,2024-11-20_15h12.06.838,DelayedPartialReportMethod,2024.1.5,None,2024-11-20 15h12.11.665974 +0530,
50,0,50,0,176.96900359960273,,,,,,,,,176.95306169986725,176.96900359960273,177.46941029978916,177.95348589960486,178.95509349973872,178.93856389960274,178.9385832999833,178.95509349973872,180.45639829989523,180.44021059991792,"['r', 'h']",0,HKEV,"['r', 'h']",False,"[0.42045290023088455, 0.8237013001926243]","[0.09225460002198815, 0.07518669962882996]",040889,001,2024-11-20_15h12.06.838,DelayedPartialReportMethod,2024.1.5,None,2024-11-20 15h12.11.665974 +0530,
51,0,51,0,180.45639829989523,,,,,,,,,180.4418462999165,180.45639829989523,180.95639729965478,181.45726649975404,182.4584160996601,182.44253189954907,182.44254819955677,182.4584160996601,183.95959199965,183.94408079981804,"['k', 'b']",1,KBLS,"['k', 'b']",False,"[0.08858580002561212, 0.5118581000715494]","[0.06924300035461783, 0.08281640009954572]",040889,001,2024-11-20_15h12.06.838,DelayedPartialReportMethod,2024.1.5,None,2024-11-20 15h12.11.665974 +0530,
52,0,52,0,183.95959199965,,,,,,,,,183.9452013997361,183.95959199965,184.46061859978363,184.9609493999742,185.96231099963188,185.94633349962533,185.9463558997959,185.96231099963188,187.46367529965937,187.44772569974884,"['w', 'o']",2,WOAD,"['w', 'o']",False,"[0.21404960006475449, 0.5755088999867439]","[0.09918159991502762, 0.09259560005739331]",040889,001,2024-11-20_15h12.06.838,DelayedPartialReportMethod,2024.1.5,None,2024-11-20 15h12.11.665974 +0530,
53,0,53,0,187.46367529965937,,,,,,,,,187.44865999976173,187.46367529965937,187.9644718999043,188.4650792996399,189.4660674999468,189.45009599998593,189.45011099986732,189.4660674999468,,190.95136179961264,"['g', 'u']",0,DAIO,"['g', 'u']",False,"[0.39426220022141933, 0.7610086998902261]","[0.07870600000023842, 0.0828200001269579]",040889,001,2024-11-20_15h12.06.838,DelayedPartialReportMethod,2024.1.5,None,2024-11-20 15h12.11.665974 +0530,
54,0,54,0,190.96762129990384,,,,,,,,,190.95228039985523,190.96762129990384,191.4681622995995,191.95208239974454,192.9530679997988,192.9372753999196,192.93729729996994,192.9530679997988,194.45477969991043,194.43890099972486,"['n', 'y']",1,NYVI,"['n', 'y']",False,"[0.3351193000562489, 0.5784174003638327]","[0.06332890037447214, 0.07938419980928302]",040889,001,2024-11-20_15h12.06.838,DelayedPartialReportMethod,2024.1.5,None,2024-11-20 15h12.11.665974 +0530,
55,0,55,0,194.45477969991043,,,,,,,,,194.4405888998881,194.45477969991043,194.95501699997112,195.4556593997404,196.4570404998958,196.4412108999677,196.44122629985213,196.4570404998958,197.95862739998847,197.94293459970504,['r'],1,GRIE,['r'],False,[0.09315580036491156],[0.06719799991697073],040889,001,2024-11-20_15h12.06.838,DelayedPartialReportMethod,2024.1.5,None,2024-11-20 15h12.11.665974 +0530,
56,0,56,0,197.95862739998847,,,,,,,,,197.9440463995561,197.95862739998847,198.4592227996327,198.95966569986194,199.9608139996417,199.94526019971818,199.9452756997198,199.9608139996417,201.46234269998968,201.44677809998393,"['r', 'e']",0,WSEL,"['r', 'e']",False,"[0.6505371001549065, 1.1492255004122853]","[0.07507540006190538, 0.06714219972491264]",040889,001,2024-11-20_15h12.06.838,DelayedPartialReportMethod,2024.1.5,None,2024-11-20 15h12.11.665974 +0530,
57,0,57,0,201.46234269998968,,,,,,,,,201.44790379982442,201.46234269998968,201.9633003999479,202.4635734995827,203.46446729963645,203.44855079986155,203.44856659974903,203.46446729963645,204.96628549974412,204.95020839991048,"['r', 'h']",0,CHKZ,"['r', 'h']",False,"[0.376800499856472, 0.9755827998742461]","[0.08801790000870824, 0.08157450007274747]",040889,001,2024-11-20_15h12.06.838,DelayedPartialReportMethod,2024.1.5,None,2024-11-20 15h12.11.665974 +0530,
58,0,58,0,204.96628549974412,,,,,,,,,204.95143179968,204.96628549974412,205.46726379962638,205.95065469993278,206.95179149974138,206.93643489992246,206.93645439995453,206.95179149974138,208.4537968998775,208.43756429990754,"['c', 'k']",0,CKON,"['c', 'k']",False,"[0.25251480005681515, 0.5264858999289572]","[0.07935899961739779, 0.06950449990108609]",040889,001,2024-11-20_15h12.06.838,DelayedPartialReportMethod,2024.1.5,None,2024-11-20 15h12.11.665974 +0530,
59,0,59,0,208.4537968998775,,,,,,,,,208.43838659999892,208.4537968998775,208.9543136996217,209.4547606999986,210.45573069993407,210.4397282996215,210.43974399985746,210.45573069993407,211.9573186999187,211.94153029983863,"['l', 'm']",0,LMYP,"['l', 'm']",False,"[0.1915530003607273, 0.40352430008351803]","[0.07224939996376634, 0.06933730002492666]",040889,001,2024-11-20_15h12.06.838,DelayedPartialReportMethod,2024.1.5,None,2024-11-20 15h12.11.665974 +0530,
60,0,60,0,211.9573186999187,,,,,,,,,211.94244709983468,211.9573186999187,212.457920699846,212.95901089999825,213.9594443999231,213.9436880997382,213.94370469963178,213.9594443999231,215.46129119955003,215.44530249992386,"['o', 'g', 'i']",0,POGI,"['o', 'g', 'i']",False,"[0.08189049968495965, 0.482101499568671, 0.9505427996627986]","[0.08893730025738478, 0.06854930007830262, 0.06618010019883513]",040889,001,2024-11-20_15h12.06.838,DelayedPartialReportMethod,2024.1.5,None,2024-11-20 15h12.11.665974 +0530,
61,0,61,0,215.46129119955003,,,,,,,,,215.44643099978566,215.46129119955003,215.96174389962107,216.46236779959872,217.46370309963822,217.44793619960546,217.44795409962535,217.46370309963822,218.96514359954745,218.94912499981,None,2,IDUX,None,False,,,040889,001,2024-11-20_15h12.06.838,DelayedPartialReportMethod,2024.1.5,None,2024-11-20 15h12.11.665974 +0530,
62,0,62,0,218.96514359954745,,,,,,,,,218.94985759956762,218.96514359954745,219.466339699924,219.96631539985538,220.96749459998682,220.95137719996274,220.95139869954437,220.96749459998682,,222.45242339977995,None,2,OGQR,None,False,,,040889,001,2024-11-20_15h12.06.838,DelayedPartialReportMethod,2024.1.5,None,2024-11-20 15h12.11.665974 +0530,
63,0,63,0,222.46887439955026,,,,,,,,,222.45324379997328,222.46887439955026,222.96957809990272,223.45290659973398,224.4546197997406,224.43870669975877,224.4387243995443,224.4546197997406,225.9559928998351,225.9402389996685,None,2,HHPV,None,False,,,040889,001,2024-11-20_15h12.06.838,DelayedPartialReportMethod,2024.1.5,None,2024-11-20 15h12.11.665974 +0530,
64,0,64,0,225.9559928998351,,,,,,,,,225.94098529964685,225.9559928998351,226.456573699601,226.95699109975249,227.95842319959775,227.94268379965797,227.94270109990612,227.95842319959775,229.46002149954438,229.44421349978074,['s'],1,SPYR,['s'],False,[0.04722640011459589],[0.0880422000773251],040889,001,2024-11-20_15h12.06.838,DelayedPartialReportMethod,2024.1.5,None,2024-11-20 15h12.11.665974 +0530,
65,0,65,0,229.46002149954438,,,,,,,,,229.44603699957952,229.46002149954438,229.96058209985495,230.46134649962187,231.46237139962614,231.44658179953694,231.44660829985514,231.46237139962614,232.96394519973546,232.94785579992458,['p'],0,OSOO,['p'],False,[0.6201311000622809],[0.07527610007673502],040889,001,2024-11-20_15h12.06.838,DelayedPartialReportMethod,2024.1.5,None,2024-11-20 15h12.11.665974 +0530,
66,0,66,0,232.96394519973546,,,,,,,,,232.94873059960082,232.96394519973546,233.46455469960347,233.96493119979277,234.96649209968746,234.95028339978307,234.9503032998182,234.96649209968746,,236.45163319958374,['l'],2,LZUR,['l'],False,[0.6063474998809397],[0.076271400321275],040889,001,2024-11-20_15h12.06.838,DelayedPartialReportMethod,2024.1.5,None,2024-11-20 15h12.11.665974 +0530,
67,0,67,0,236.4675772995688,,,,,,,,,236.45289919991046,236.4675772995688,236.9682088997215,237.4522850997746,238.45362689998,238.4377343999222,238.4377565998584,238.45362689998,239.95487459981814,239.93897819984704,"['y', 'x']",1,YXJX,"['y', 'x']",False,"[0.013424600008875132, 0.320454700384289]","[0.06981470016762614, 0.07963569974526763]",040889,001,2024-11-20_15h12.06.838,DelayedPartialReportMethod,2024.1.5,None,2024-11-20 15h12.11.665974 +0530,
68,0,68,0,239.95487459981814,,,,,,,,,239.94007309991866,239.95487459981814,240.45574829960242,240.95596179971471,241.9569718996063,241.94093649974093,241.94096439983696,241.9569718996063,243.45873239962384,243.44315529987216,"['y', 'i']",2,ZTNL,"['y', 'i']",False,"[0.2823645998723805, 0.5449061999097466]","[0.07639090018346906, 0.07178980018943548]",040889,001,2024-11-20_15h12.06.838,DelayedPartialReportMethod,2024.1.5,None,2024-11-20 15h12.11.665974 +0530,
69,0,69,0,243.45873239962384,,,,,,,,,243.44424269953743,243.45873239962384,243.95929129980505,244.4597193999216,245.4608173999004,245.44538869988173,245.445405499544,245.4608173999004,246.96278349962085,246.94712199969217,['p'],1,EUAP,['p'],False,[0.1041153003461659],[0.07791339978575706],040889,001,2024-11-20_15h12.06.838,DelayedPartialReportMethod,2024.1.5,None,2024-11-20 15h12.11.665974 +0530,
70,0,70,0,246.96278349962085,,,,,,,,,246.9479630999267,246.96278349962085,247.46311239991337,247.96369309956208,248.96483279997483,248.94903799984604,248.94905399996787,248.96483279997483,250.46689469972625,250.45069149974734,None,0,OGAE,None,False,,,040889,001,2024-11-20_15h12.06.838,DelayedPartialReportMethod,2024.1.5,None,2024-11-20 15h12.11.665974 +0530,
71,0,71,0,250.46689469972625,,,,,,,,,250.45125839998946,250.46689469972625,250.96725739957765,251.45092709967867,252.45225429954007,252.43611699994653,252.436132799834,252.45225429954007,253.9543587998487,253.93763449974358,None,1,HQLQ,None,False,,,040889,001,2024-11-20_15h12.06.838,DelayedPartialReportMethod,2024.1.5,None,2024-11-20 15h12.11.665974 +0530,
72,0,72,0,253.9543587998487,,,,,,,,,253.93826459953561,253.9543587998487,254.45432449970394,254.9547621998936,255.9554872997105,255.94014839967713,255.94016459956765,255.9554872997105,257.45767189981416,257.4420783999376,None,2,NUFI,None,False,,,040889,001,2024-11-20_15h12.06.838,DelayedPartialReportMethod,2024.1.5,None,2024-11-20 15h12.11.665974 +0530,
73,0,73,0,257.45767189981416,,,,,,,,,257.4428236996755,257.45767189981416,257.95801159972325,258.4590475996956,259.45970279956236,259.4440462999046,259.444070499856,259.45970279956236,260.96151039982215,260.94577439967543,['t'],1,YTBF,['t'],False,[0.09486819989979267],[0.07660440029576421],040889,001,2024-11-20_15h12.06.838,DelayedPartialReportMethod,2024.1.5,None,2024-11-20 15h12.11.665974 +0530,
74,0,74,0,260.96151039982215,,,,,,,,,260.9466114998795,260.96151039982215,261.4623173996806,261.96256619971246,262.9636236997321,262.94787989975885,262.9479011995718,262.9636236997321,264.4652682999149,264.44989509973675,['s'],2,XUNW,['s'],False,[0.3135997001081705],[0.07783030020073056],040889,001,2024-11-20_15h12.06.838,DelayedPartialReportMethod,2024.1.5,None,2024-11-20 15h12.11.665974 +0530,
75,0,75,0,264.4652682999149,,,,,,,,,264.45074469968677,264.4652682999149,264.96594799961895,265.4663803996518,266.4670583996922,266.45167819969356,266.4516969998367,266.4670583996922,,267.9527231999673,"['e', 'z']",2,EZEY,"['e', 'z']",False,"[0.07086790027096868, 0.4592095999978483]","[0.0950345997698605, 0.09479300025850534]",040889,001,2024-11-20_15h12.06.838,DelayedPartialReportMethod,2024.1.5,None,2024-11-20 15h12.11.665974 +0530,
76,0,76,0,267.9689700999297,,,,,,,,,267.9537123995833,267.9689700999297,268.4695677999407,268.95358089962974,269.9548831996508,269.9395932997577,269.9396332995966,269.9548831996508,271.45647969981655,271.4406571998261,"['f', 'e']",1,FEVZ,"['f', 'e']",False,"[0.6353329997509718, 0.7438747999258339]","[0.07765990030020475, 0.08871060004457831]",040889,001,2024-11-20_15h12.06.838,DelayedPartialReportMethod,2024.1.5,None,2024-11-20 15h12.11.665974 +0530,
77,0,77,0,271.45647969981655,,,,,,,,,271.44159249961376,271.45647969981655,271.95700249960646,272.4578012996353,273.4586264998652,273.442847199738,273.44286859966815,273.4586264998652,274.9601588998921,274.9441989995539,['p'],1,EPHT,['p'],False,[0.26766050001606345],[0.06872169999405742],040889,001,2024-11-20_15h12.06.838,DelayedPartialReportMethod,2024.1.5,None,2024-11-20 15h12.11.665974 +0530,
78,0,78,0,274.9601588998921,,,,,,,,,274.94531129999086,274.9601588998921,275.46080679958686,275.9613774996251,276.9629135997966,276.94670889992267,276.94672459969297,276.9629135997966,278.46418869961053,278.4472204996273,None,0,UJPL,None,False,,,040889,001,2024-11-20_15h12.06.838,DelayedPartialReportMethod,2024.1.5,None,2024-11-20 15h12.11.665974 +0530,
79,0,79,0,278.46418869961053,,,,,,,,,278.4477690998465,278.46418869961053,278.9649821999483,279.46462589967996,280.4668769999407,280.45029699988663,280.45031479978934,280.4668769999407,281.9679358997382,281.95142779964954,"['t', 'e']",0,VYEL,"['t', 'e']",False,"[0.303343300241977, 0.42175200022757053]","[0.08233529981225729, 0.08919350011274219]",040889,001,2024-11-20_15h12.06.838,DelayedPartialReportMethod,2024.1.5,None,2024-11-20 15h12.11.665974 +0530,
80,0,80,0,281.9679358997382,,,,,,,,,281.9523177999072,281.9679358997382,282.4686994999647,282.9533091997728,283.9535660999827,283.93791119987145,283.937928899657,283.9535660999827,285.45509679988027,285.4393047997728,['x'],2,AJRH,['x'],False,[1.0761235998943448],[0.09903489984571934],040889,001,2024-11-20_15h12.06.838,DelayedPartialReportMethod,2024.1.5,None,2024-11-20 15h12.11.665974 +0530,
81,0,81,0,285.45509679988027,,,,,,,,,285.4401283999905,285.45509679988027,285.9559188997373,286.4562791995704,287.457316799555,287.44168669963256,287.4417032999918,287.457316799555,288.95907569956034,288.94310049992055,"['e', 'p']",0,ZPRP,"['e', 'p']",False,"[0.44571550004184246, 1.0096563999541104]","[0.11699040001258254, 0.05686530005186796]",040889,001,2024-11-20_15h12.06.838,DelayedPartialReportMethod,2024.1.5,None,2024-11-20 15h12.11.665974 +0530,
82,0,82,0,288.95907569956034,,,,,,,,,288.9440534999594,288.95907569956034,289.4593948996626,289.96016389969736,290.9614714998752,290.94568229978904,290.94570069992915,290.9614714998752,292.46269009960815,292.4468465996906,"['b', 'o']",0,BWOO,"['b', 'o']",False,"[0.8064480000175536, 1.142525800038129]","[0.07135209999978542, 0.06295049982145429]",040889,001,2024-11-20_15h12.06.838,DelayedPartialReportMethod,2024.1.5,None,2024-11-20 15h12.11.665974 +0530,
83,0,83,0,292.46269009960815,,,,,,,,,292.4476593998261,292.46269009960815,292.96352559980005,293.46396369999275,294.4654804999009,294.4492725995369,294.4492871998809,294.4654804999009,295.96674839966,295.95074419956654,['g'],1,ERJS,['g'],False,[0.4055710001848638],[0.08445549989119172],040889,001,2024-11-20_15h12.06.838,DelayedPartialReportMethod,2024.1.5,None,2024-11-20 15h12.11.665974 +0530,
84,0,84,0,295.96674839966,,,,,,,,,295.95158099988475,295.96674839966,296.4671936999075,296.9510734998621,297.9526418996975,297.93666509957984,297.93669079989195,297.9526418996975,299.45380389969796,299.437955299858,['t'],1,LTAG,['t'],False,[0.2458088002167642],[0.08890319988131523],040889,001,2024-11-20_15h12.06.838,DelayedPartialReportMethod,2024.1.5,None,2024-11-20 15h12.11.665974 +0530,
85,0,85,0,299.45380389969796,,,,,,,,,299.43903879961,299.45380389969796,299.95445129973814,300.45498809963465,301.4560497999191,301.4404708999209,301.44048709981143,301.4560497999191,302.9576589995995,302.9421064998023,['c'],2,HJAQ,['c'],False,[0.3194043003022671],[0.07931899977847934],040889,001,2024-11-20_15h12.06.838,DelayedPartialReportMethod,2024.1.5,None,2024-11-20 15h12.11.665974 +0530,
86,0,86,0,302.9576589995995,,,,,,,,,302.94293079990894,302.9576589995995,303.4581334996037,303.9588303999044,304.9603368998505,304.9443108998239,304.94432479981333,304.9603368998505,306.4616916999221,306.4453520998359,['b'],2,WDCP,['b'],False,[0.34996150014922023],[0.08252760022878647],040889,001,2024-11-20_15h12.06.838,DelayedPartialReportMethod,2024.1.5,None,2024-11-20 15h12.11.665974 +0530,
87,0,87,0,306.4616916999221,,,,,,,,,306.4462023996748,306.4616916999221,306.9621489997953,307.46217859955505,308.4634286998771,308.4483430995606,308.4483666997403,308.4634286998771,309.9653199999593,309.94958069967106,"['k', 'u']",1,KUSQ,"['k', 'u']",False,"[0.9278168003074825, 1.0906322002410889]","[0.0716555998660624, 0.07485730014741421]",040889,001,2024-11-20_15h12.06.838,DelayedPartialReportMethod,2024.1.5,None,2024-11-20 15h12.11.665974 +0530,
88,0,88,0,309.9653199999593,,,,,,,,,309.9506775997579,309.9653199999593,310.46700729988515,310.9498997996561,311.95075229974464,311.9352675997652,311.93528589978814,311.95075229974464,313.4524407996796,313.43668189970776,"['t', 'x']",0,TZML,"['t', 'x']",False,"[0.10357879986986518, 0.782256199978292]","[0.06559160025790334, 0.07229330018162727]",040889,001,2024-11-20_15h12.06.838,DelayedPartialReportMethod,2024.1.5,None,2024-11-20 15h12.11.665974 +0530,
89,0,89,0,313.4524407996796,,,,,,,,,313.43780609965324,313.4524407996796,313.9530518995598,314.4540311996825,315.4542255997658,315.43831979995593,315.4383387998678,315.4542255997658,316.9564824998379,316.9407505998388,['g'],1,UGXW,['g'],False,[0.35743149975314736],[0.07224450027570128],040889,001,2024-11-20_15h12.06.838,DelayedPartialReportMethod,2024.1.5,None,2024-11-20 15h12.11.665974 +0530,
90,0,90,0,316.9564824998379,,,,,,,,,316.9419354996644,316.9564824998379,317.4570219996385,317.95785279991105,318.9586963998154,318.9425523998216,318.9425672995858,318.9586963998154,320.45995709998533,320.443678799551,"['u', 'y']",0,VVMV,"['u', 'y']",False,"[0.07613800000399351, 0.3437016000971198]","[0.07611260004341602, 0.07586580002680421]",040889,001,2024-11-20_15h12.06.838,DelayedPartialReportMethod,2024.1.5,None,2024-11-20 15h12.11.665974 +0530,
91,0,91,0,320.45995709998533,,,,,,,,,320.4445467996411,320.45995709998533,320.96089739957824,321.46167649980634,322.4628505995497,322.4466308997944,322.4466552999802,322.4628505995497,323.9643874997273,323.9484962997958,"['e', 'u']",1,EFFB,"['e', 'u']",False,"[0.9663443001918495, 1.1204468999058008]","[0.08472479972988367, 0.07568740006536245]",040889,001,2024-11-20_15h12.06.838,DelayedPartialReportMethod,2024.1.5,None,2024-11-20 15h12.11.665974 +0530,
92,0,92,0,323.9643874997273,,,,,,,,,323.94931599963456,323.9643874997273,324.4651561998762,324.9657509997487,325.96625109994784,325.9506784998812,325.95069449953735,325.96625109994784,,327.45154839986935,['a'],1,ZAQK,['a'],False,[0.06882090028375387],[0.09615339990705252],040889,001,2024-11-20_15h12.06.838,DelayedPartialReportMethod,2024.1.5,None,2024-11-20 15h12.11.665974 +0530,
93,0,93,0,327.46794439991936,,,,,,,,,327.4525072998367,327.46794439991936,327.96846209978685,328.45262419991195,329.45424879994243,329.4372857999988,329.4373042997904,329.45424879994243,330.95545519981533,330.94122329959646,None,0,YLBM,None,False,,,040889,001,2024-11-20_15h12.06.838,DelayedPartialReportMethod,2024.1.5,None,2024-11-20 15h12.11.665974 +0530,
94,0,94,0,330.95545519981533,,,,,,,,,330.94239999959245,330.95545519981533,331.45527499960735,331.95588819961995,332.95709059992805,332.94178079999983,332.94182389974594,332.95709059992805,334.45946979988366,334.44316209992394,"['v', 'i']",0,VIYH,"['v', 'i']",False,"[0.543675399851054, 1.0802361001260579]","[0.07774890027940273, 0.06914889998733997]",040889,001,2024-11-20_15h12.06.838,DelayedPartialReportMethod,2024.1.5,None,2024-11-20 15h12.11.665974 +0530,
95,0,95,0,334.45946979988366,,,,,,,,,334.44434929965064,334.45946979988366,334.95993729960173,335.46068079955876,336.461103499867,336.44504599971697,336.4450634997338,336.461103499867,337.962963799946,337.9469902999699,['p'],0,WPCV,['p'],False,[0.14714189991354942],[0.07709510019049048],040889,001,2024-11-20_15h12.06.838,DelayedPartialReportMethod,2024.1.5,None,2024-11-20 15h12.11.665974 +0530,
96,0,96,0,337.962963799946,,,,,,,,,337.94807919999585,337.962963799946,338.46345289982855,338.96398319955915,339.96505449991673,339.94965789979324,339.9496729997918,339.96505449991673,341.46681449981406,341.45100659970194,"['t', 'i']",2,TLIK,"['t', 'i']",False,"[0.1838255999609828, 0.5501155001111329]","[0.0804457999765873, 0.0767697999253869]",040889,001,2024-11-20_15h12.06.838,DelayedPartialReportMethod,2024.1.5,None,2024-11-20 15h12.11.665974 +0530,
97,0,97,0,341.46681449981406,,,,,,,,,341.4518136996776,341.46681449981406,341.9675928996876,342.45106059964746,343.45237059984356,343.43634609971195,343.4363612998277,343.45237059984356,344.9538774997927,344.93851709971204,['r'],0,WLTZ,['r'],False,[0.25817140005528927],[0.10186310019344091],040889,001,2024-11-20_15h12.06.838,DelayedPartialReportMethod,2024.1.5,None,2024-11-20 15h12.11.665974 +0530,
98,0,98,0,344.9538774997927,,,,,,,,,344.9397421996109,344.9538774997927,345.45465259999037,345.95503099961206,346.95570219960064,346.94015429960564,346.9401704999618,346.95570219960064,348.4575691996142,348.4419251997024,"['l', 'e']",0,PLEW,"['l', 'e']",False,"[0.040806999895721674, 0.1786658000200987]","[0.05899900011718273, 0.09297760017216206]",040889,001,2024-11-20_15h12.06.838,DelayedPartialReportMethod,2024.1.5,None,2024-11-20 15h12.11.665974 +0530,
99,0,99,0,348.4575691996142,,,,,,,,,348.44343119999394,348.4575691996142,348.9589697998017,349.45898339990526,350.4594678999856,350.4435278996825,350.4435458998196,350.4594678999856,351.96177089959383,351.94630939979106,"['i', 'g']",1,ICZY,"['i', 'g']",False,"[0.5714255999773741, 0.9622391001321375]","[0.07373560033738613, 0.0775135001167655]",040889,001,2024-11-20_15h12.06.838,DelayedPartialReportMethod,2024.1.5,None,2024-11-20 15h12.11.665974 +0530,
