trials.thisRepN,trials.thisTrialN,trials.thisN,trials.thisIndex,thisRow.t,notes,introduction.started,text.started,key_resp.started,introduction.stopped,key_resp.keys,key_resp.rt,key_resp.duration,trial.started,letter_grid.started,letter_grid.stopped,row_cue.started,row_cue.stopped,trial.stopped,response_routine.started,response.started,response.stopped,response_routine.stopped,response.keys,response.rt,response.duration,Cued Row,Correct Row,Participant Response,Is Correct,participant,session,date,expName,psychopyVersion,frameRate,expStart,
,,,,,,0.004597700200974941,0.015747100114822388,0.015747100114822388,2.451796699780971,space,2.355712699703872,None,,,,,,,,,,,,,,,,,,109840,001,2024-11-20_15h04.33.293,DelayedPartialReportMethod,2024.1.5,None,2024-11-20 15h04.39.177981 +0530,
0,0,0,0,2.467097899876535,,,,,,,,,2.4530389001592994,2.467097899876535,2.9684978001751006,3.4526256998069584,4.453876500017941,4.438202700112015,4.438221000134945,4.453876500017941,6.455980899743736,6.439923699945211,"['h', 'y']","[0.35961310006678104, 0.524267400149256]","[0.0656178998760879, 0.07897769985720515]",2,LSYZ,"['h', 'y']",False,109840,001,2024-11-20_15h04.33.293,DelayedPartialReportMethod,2024.1.5,None,2024-11-20 15h04.39.177981 +0530,
1,0,1,0,6.455980899743736,,,,,,,,,6.440988100133836,6.455980899743736,6.956215600017458,7.4570414000190794,8.458013100083917,8.442365400027484,8.442385899834335,8.458013100083917,10.528590700123459,10.444294199813157,['k'],[0.5003432999365032],[0.07398390024900436],0,NYND,['k'],False,109840,001,2024-11-20_15h04.33.293,DelayedPartialReportMethod,2024.1.5,None,2024-11-20 15h04.39.177981 +0530,
2,0,2,0,10.528590700123459,,,,,,,,,10.445428300183266,10.528590700123459,11.044381800107658,11.46153899980709,12.46259680017829,12.446850399952382,12.44686619983986,12.46259680017829,14.464812399819493,14.449110799934715,"['i', 's']","[0.24976899987086654, 0.4246820998378098]","[0.06953490013256669, 0.07883390039205551]",0,ISZQ,"['i', 's']",False,109840,001,2024-11-20_15h04.33.293,DelayedPartialReportMethod,2024.1.5,None,2024-11-20 15h04.39.177981 +0530,
3,0,3,0,14.464812399819493,,,,,,,,,14.450058199930936,14.464812399819493,14.965600199997425,15.465990299824625,16.46668619988486,16.450954500120133,16.450973900035024,16.46668619988486,,18.452684899792075,"['k', 'g']","[0.1389176002703607, 0.6252532000653446]","[0.06647149985656142, 0.07012580009177327]",1,KGZT,"['k', 'g']",False,109840,001,2024-11-20_15h04.33.293,DelayedPartialReportMethod,2024.1.5,None,2024-11-20 15h04.39.177981 +0530,
4,0,4,0,18.468757300172,,,,,,,,,18.453594100195915,18.468757300172,18.969634499866515,19.453525200020522,20.45413179975003,20.438446499872953,20.43846349976957,20.45413179975003,22.45688010007143,22.44119179993868,['y'],[0.5228039999492466],[0.06770470039919019],0,KFRS,['y'],False,109840,001,2024-11-20_15h04.33.293,DelayedPartialReportMethod,2024.1.5,None,2024-11-20 15h04.39.177981 +0530,
5,0,5,0,22.45688010007143,,,,,,,,,22.44205110007897,22.45688010007143,22.95790689997375,23.458259199745953,24.459249699953943,24.44347789976746,24.443498100154102,24.459249699953943,26.461139800027013,26.44569079997018,"['x', 'z']","[0.2746682995930314, 0.8881802996620536]","[0.07382120005786419, 0.08550950000062585]",0,XHXW,"['x', 'z']",False,109840,001,2024-11-20_15h04.33.293,DelayedPartialReportMethod,2024.1.5,None,2024-11-20 15h04.39.177981 +0530,
6,0,6,0,26.461139800027013,,,,,,,,,26.44651129981503,26.461139800027013,26.962108499836177,27.462527299765497,28.463591900188476,28.447531799785793,28.447552899830043,28.463591900188476,30.465545400045812,30.449827999807894,['g'],[0.44648349983617663],[0.0761863999068737],2,GFYQ,['g'],False,109840,001,2024-11-20_15h04.33.293,DelayedPartialReportMethod,2024.1.5,None,2024-11-20 15h04.39.177981 +0530,
7,0,7,0,30.465545400045812,,,,,,,,,30.45064659975469,30.465545400045812,30.966372500173748,31.46674790000543,32.46793380007148,32.45205339975655,32.4520728001371,32.46793380007148,,34.45366849983111,['l'],[0.20023229997605085],[0.06483269995078444],1,FLFN,['l'],False,109840,001,2024-11-20_15h04.33.293,DelayedPartialReportMethod,2024.1.5,None,2024-11-20 15h04.39.177981 +0530,
8,0,8,0,34.4703544001095,,,,,,,,,34.454854799900204,34.4703544001095,34.970780099742115,35.454438999760896,36.45578130008653,36.43982349988073,36.43984409980476,36.45578130008653,38.457817799877375,38.44230950018391,['t'],[0.6185639002360404],[0.07693329965695739],2,YQDT,['t'],False,109840,001,2024-11-20_15h04.33.293,DelayedPartialReportMethod,2024.1.5,None,2024-11-20 15h04.39.177981 +0530,
9,0,9,0,38.457817799877375,,,,,,,,,38.44326600013301,38.457817799877375,38.958469099830836,39.45888239983469,40.460007899906486,40.444729399867356,40.44474710011855,40.460007899906486,42.462428300175816,42.446757699828595,"['v', 'z']","[1.2627309998497367, 1.4300565999001265]","[0.075280100107193, 0.06881960015743971]",2,VZKI,"['v', 'z']",False,109840,001,2024-11-20_15h04.33.293,DelayedPartialReportMethod,2024.1.5,None,2024-11-20 15h04.39.177981 +0530,
10,0,10,0,42.462428300175816,,,,,,,,,42.447622399777174,42.462428300175816,42.96256359992549,43.46329879993573,44.464401400182396,44.44887339975685,44.44888920010999,44.464401400182396,46.46669529983774,46.45099340006709,['j'],[1.886574599891901],[0.07235620031133294],2,JNUV,['j'],False,109840,001,2024-11-20_15h04.33.293,DelayedPartialReportMethod,2024.1.5,None,2024-11-20 15h04.39.177981 +0530,
11,0,11,0,46.46669529983774,,,,,,,,,46.45182179985568,46.46669529983774,46.9673330001533,47.45132160000503,48.452255100011826,48.436314499937,48.436329499818385,48.452255100011826,50.45426909998059,50.438583499751985,['n'],[0.08652260014787316],[0.07236089976504445],1,MCNY,['n'],False,109840,001,2024-11-20_15h04.33.293,DelayedPartialReportMethod,2024.1.5,None,2024-11-20 15h04.39.177981 +0530,
12,0,12,0,50.45426909998059,,,,,,,,,50.43940530018881,50.45426909998059,50.95498749986291,51.455600100103766,52.456631099805236,52.440834399778396,52.44084980012849,52.456631099805236,54.45900260005146,54.44297719979659,"['o', 's']","[0.10765499994158745, 0.6171924998052418]","[0.0654755998402834, 0.06275880010798573]",0,OSHS,"['o', 's']",False,109840,001,2024-11-20_15h04.33.293,DelayedPartialReportMethod,2024.1.5,None,2024-11-20 15h04.39.177981 +0530,
13,0,13,0,54.45900260005146,,,,,,,,,54.44380640005693,54.45900260005146,54.959634200204164,55.45973220001906,56.460928100161254,56.4453221000731,56.445338000077754,56.460928100161254,58.463854500092566,58.447461400181055,['u'],[0.6227153996005654],[0.06897730007767677],0,UOQI,['u'],False,109840,001,2024-11-20_15h04.33.293,DelayedPartialReportMethod,2024.1.5,None,2024-11-20 15h04.39.177981 +0530,
14,0,14,0,58.463854500092566,,,,,,,,,58.44844170007855,58.463854500092566,58.96392130013555,59.46453800005838,60.46571769984439,60.44994580000639,60.44996549980715,60.46571769984439,62.467929100152105,62.45178999984637,"['r', 'k']","[0.33086569979786873, 0.8985910997726023]","[0.07231889991089702, 0.06746069993823767]",1,RKQJ,"['r', 'k']",False,109840,001,2024-11-20_15h04.33.293,DelayedPartialReportMethod,2024.1.5,None,2024-11-20 15h04.39.177981 +0530,
15,0,15,0,62.467929100152105,,,,,,,,,62.452874899841845,62.467929100152105,62.96849330002442,63.45168279996142,64.45321180019528,64.43736610002816,64.43738120002672,64.45321180019528,66.45564890000969,66.43955870019272,"['u', 'g']","[0.7299815998412669, 1.263124099932611]","[0.07292860001325607, 0.0685505997389555]",0,UCDG,"['u', 'g']",False,109840,001,2024-11-20_15h04.33.293,DelayedPartialReportMethod,2024.1.5,None,2024-11-20 15h04.39.177981 +0530,
16,0,16,0,66.45564890000969,,,,,,,,,66.44065340002999,66.45564890000969,66.95617449982092,67.4563939999789,68.45778639987111,68.4420175999403,68.4420360000804,68.45778639987111,70.4600419998169,70.44428029982373,['a'],[0.7359171998687088],[0.09160139970481396],2,HFKA,['a'],False,109840,001,2024-11-20_15h04.33.293,DelayedPartialReportMethod,2024.1.5,None,2024-11-20 15h04.39.177981 +0530,
17,0,17,0,70.4600419998169,,,,,,,,,70.44539549993351,70.4600419998169,70.96047340007499,71.46109959995374,72.46172480005771,72.44621860003099,72.44623549981043,72.46172480005771,74.46419799979776,74.44883049977943,['w'],[0.7163698999211192],[0.10275149997323751],2,UWNQ,['w'],False,109840,001,2024-11-20_15h04.33.293,DelayedPartialReportMethod,2024.1.5,None,2024-11-20 15h04.39.177981 +0530,
18,0,18,0,74.46419799979776,,,,,,,,,74.44994980003685,74.46419799979776,74.96487940009683,75.46535379998386,76.46655499981716,76.45055639976636,76.45057129999623,76.46655499981716,,78.45229570008814,['j'],[0.6961169000715017],[0.07838610000908375],2,VUWB,['j'],False,109840,001,2024-11-20_15h04.33.293,DelayedPartialReportMethod,2024.1.5,None,2024-11-20 15h04.39.177981 +0530,
19,0,19,0,78.46884460002184,,,,,,,,,78.45347899990156,78.46884460002184,78.9691785001196,79.4529633000493,80.4541274998337,80.43835619976744,80.43837059987709,80.4541274998337,82.45637969998643,82.44052969990298,['i'],[0.21050990000367165],[0.08324260031804442],0,IYQZ,['i'],False,109840,001,2024-11-20_15h04.33.293,DelayedPartialReportMethod,2024.1.5,None,2024-11-20 15h04.39.177981 +0530,
20,0,20,0,82.45637969998643,,,,,,,,,82.44137750007212,82.45637969998643,82.95697579998523,83.45725610014051,84.45873210020363,84.44284710008651,84.44286220008507,84.45873210020363,86.4608322000131,86.44487969996408,['l'],[0.5028287000022829],[0.07544010039418936],0,LFRQ,['l'],False,109840,001,2024-11-20_15h04.33.293,DelayedPartialReportMethod,2024.1.5,None,2024-11-20 15h04.39.177981 +0530,
21,0,21,0,86.4608322000131,,,,,,,,,86.44569640001282,86.4608322000131,86.96139679988846,87.46197750000283,88.4630002998747,88.447337300051,88.44735849974677,88.4630002998747,90.46509710000828,90.44927900005132,"['m', 'b']","[0.5904041002504528, 0.8491863003000617]","[0.07885849988088012, 0.0784482997842133]",0,MBIS,"['m', 'b']",False,109840,001,2024-11-20_15h04.33.293,DelayedPartialReportMethod,2024.1.5,None,2024-11-20 15h04.39.177981 +0530,
22,0,22,0,90.46509710000828,,,,,,,,,90.45016349991783,90.46509710000828,90.96591369993985,91.46637629996985,92.46745799994096,92.45166550017893,92.45168420020491,92.46745799994096,,94.45314919995144,['v'],[0.8226252999156713],[0.08953290013596416],2,ZVAF,['v'],False,109840,001,2024-11-20_15h04.33.293,DelayedPartialReportMethod,2024.1.5,None,2024-11-20 15h04.39.177981 +0530,
23,0,23,0,94.4695099000819,,,,,,,,,94.4540748000145,94.4695099000819,94.97014709981158,95.45383579982445,96.4558816999197,96.439332799986,96.43934739986435,96.4558816999197,98.45740990014747,98.44145780010149,"['t', 'e']","[0.7078595003113151, 0.936096700374037]","[0.07608589995652437, 0.07922539999708533]",2,TEOZ,"['t', 'e']",False,109840,001,2024-11-20_15h04.33.293,DelayedPartialReportMethod,2024.1.5,None,2024-11-20 15h04.39.177981 +0530,
24,0,24,0,98.45740990014747,,,,,,,,,98.44257090007886,98.45740990014747,98.95825049979612,99.45891360007226,100.45970440004021,100.44446300016716,100.44448120007291,100.45970440004021,102.46174599975348,102.44624060019851,['u'],[0.29025480011478066],[0.06580850016325712],2,AVZQ,['u'],False,109840,001,2024-11-20_15h04.33.293,DelayedPartialReportMethod,2024.1.5,None,2024-11-20 15h04.39.177981 +0530,
25,0,25,0,102.46174599975348,,,,,,,,,102.44719030009583,102.46174599975348,102.96242740005255,103.46306159999222,104.46410219976678,104.448092199862,104.44810710009187,104.46410219976678,106.4664916000329,106.44991960003972,"['o', 'g']","[0.4180828002281487, 0.8293224000371993]","[0.07519329991191626, 0.07922059996053576]",2,OCDS,"['o', 'g']",False,109840,001,2024-11-20_15h04.33.293,DelayedPartialReportMethod,2024.1.5,None,2024-11-20 15h04.39.177981 +0530,
26,0,26,0,106.4664916000329,,,,,,,,,106.45169490016997,106.4664916000329,106.96673680003732,107.46728370012715,108.46851859986782,108.45257740002126,108.45259279990569,108.46851859986782,,110.4542001998052,"['m', 'r']","[0.33254910027608275, 0.7544440999627113]","[0.07540229987353086, 0.08240200020372868]",0,WMRP,"['m', 'r']",False,109840,001,2024-11-20_15h04.33.293,DelayedPartialReportMethod,2024.1.5,None,2024-11-20 15h04.39.177981 +0530,
27,0,27,0,110.47046109987423,,,,,,,,,110.45533639984205,110.47046109987423,110.97116040019318,111.4550616000779,112.45631860010326,112.44034660002217,112.44036090001464,112.45631860010326,114.45812489977106,114.44242289988324,"['z', 'l']","[0.3723496999591589, 0.8266670000739396]","[0.09625570010393858, 0.07265659980475903]",0,ZILW,"['z', 'l']",False,109840,001,2024-11-20_15h04.33.293,DelayedPartialReportMethod,2024.1.5,None,2024-11-20 15h04.39.177981 +0530,
28,0,28,0,114.45812489977106,,,,,,,,,114.44352679979056,114.45812489977106,114.95882460009307,115.45953350001946,116.46063720015809,116.44485699990764,116.44487319979817,116.46063720015809,118.46268410002813,118.44661629991606,"['u', 'v']","[0.42465730011463165, 1.1373789999634027]","[0.07428339961916208, 0.0926689999178052]",0,UWUJ,"['u', 'v']",False,109840,001,2024-11-20_15h04.33.293,DelayedPartialReportMethod,2024.1.5,None,2024-11-20 15h04.39.177981 +0530,
29,0,29,0,118.46268410002813,,,,,,,,,118.44743120018393,118.46268410002813,118.96359300008044,119.46374240005389,120.4649406997487,120.44928319985047,120.44930309988558,120.4649406997487,122.46716659981757,122.45117100002244,"['u', 'x']","[0.6956549999304116, 1.7866082000546157]","[0.08397209970280528, 0.07617769995704293]",1,UKEA,"['u', 'x']",False,109840,001,2024-11-20_15h04.33.293,DelayedPartialReportMethod,2024.1.5,None,2024-11-20 15h04.39.177981 +0530,
30,0,30,0,122.46716659981757,,,,,,,,,122.45276239980012,122.46716659981757,122.9677535998635,123.45162450009957,124.45290130004287,124.43697489984334,124.43699409998953,124.45290130004287,126.45496489992365,126.4388346998021,['i'],[0.6818773001432419],[0.07229409972205758],2,OIGG,['i'],False,109840,001,2024-11-20_15h04.33.293,DelayedPartialReportMethod,2024.1.5,None,2024-11-20 15h04.39.177981 +0530,
31,0,31,0,126.45496489992365,,,,,,,,,126.4401046000421,126.45496489992365,126.95559180015698,127.45622240006924,128.45686500007287,128.4413711000234,128.44138609990478,128.45686500007287,130.45948259998113,130.44331699982285,['e'],[1.054018100257963],[0.06528319977223873],0,LDFQ,['e'],False,109840,001,2024-11-20_15h04.33.293,DelayedPartialReportMethod,2024.1.5,None,2024-11-20 15h04.39.177981 +0530,
32,0,32,0,130.45948259998113,,,,,,,,,130.44412219990045,130.45948259998113,130.95996209979057,131.46055650012568,132.461696700193,132.44572860002518,132.44575159996748,132.461696700193,134.46442470001057,134.4478444000706,"['j', 'e']","[0.3222179999575019, 0.5701192999258637]","[0.08558509964495897, 0.0932445996440947]",2,WFLH,"['j', 'e']",False,109840,001,2024-11-20_15h04.33.293,DelayedPartialReportMethod,2024.1.5,None,2024-11-20 15h04.39.177981 +0530,
33,0,33,0,134.46442470001057,,,,,,,,,134.44901189999655,134.46442470001057,134.96426390018314,135.46469549974427,136.46672620018944,136.45002740016207,136.45004290016368,136.46672620018944,138.4679811000824,138.45222009997815,"['m', 'r']","[0.10325739998370409, 0.6139575000852346]","[0.06843420024961233, 0.07816469995304942]",2,RMTR,"['m', 'r']",False,109840,001,2024-11-20_15h04.33.293,DelayedPartialReportMethod,2024.1.5,None,2024-11-20 15h04.39.177981 +0530,
34,0,34,0,138.4679811000824,,,,,,,,,138.45330209983513,138.4679811000824,138.9688077000901,139.4525139001198,140.4539034999907,140.4378149001859,140.4378335000947,140.4539034999907,142.45560189988464,142.43999999994412,"['b', 'i']","[0.144418700132519, 0.6284006000496447]","[0.0724932998418808, 0.08236500015482306]",1,BIKO,"['b', 'i']",False,109840,001,2024-11-20_15h04.33.293,DelayedPartialReportMethod,2024.1.5,None,2024-11-20 15h04.39.177981 +0530,
35,0,35,0,142.45560189988464,,,,,,,,,142.44081290019676,142.45560189988464,142.9561501997523,143.45711869979277,144.4582127998583,144.44242849992588,144.4424431999214,144.4582127998583,146.4604369001463,146.44436699990183,['p'],[0.33781850012019277],[0.07005150010809302],0,BPBY,['p'],False,109840,001,2024-11-20_15h04.33.293,DelayedPartialReportMethod,2024.1.5,None,2024-11-20 15h04.39.177981 +0530,
36,0,36,0,146.4604369001463,,,,,,,,,146.44545099977404,146.4604369001463,146.9607485998422,147.46144950017333,148.46244650008157,148.44654530007392,148.44656149996445,148.46244650008157,150.46467840019614,150.4489863999188,['e'],[0.25234160013496876],[0.10588219994679093],1,GUXM,['e'],False,109840,001,2024-11-20_15h04.33.293,DelayedPartialReportMethod,2024.1.5,None,2024-11-20 15h04.39.177981 +0530,
37,0,37,0,150.46467840019614,,,,,,,,,150.45008089998737,150.46467840019614,150.96544979978353,151.46629949985072,152.46691309986636,152.45100039988756,152.45101589988917,152.46691309986636,,154.45223330007866,"['p', 'h']","[0.4560081004165113, 1.3286272999830544]","[0.07957639964297414, 0.07210700027644634]",0,PHLW,"['p', 'h']",False,109840,001,2024-11-20_15h04.33.293,DelayedPartialReportMethod,2024.1.5,None,2024-11-20 15h04.39.177981 +0530,
38,0,38,0,154.4693009001203,,,,,,,,,154.45322240004316,154.4693009001203,154.96993680018932,155.45347929978743,156.4546523001045,156.43873649975285,156.43875769991428,156.4546523001045,158.45682370010763,158.44105219980702,"['r', 'l']","[0.4033170002512634, 0.6542739002034068]","[0.08950199978426099, 0.0701155997812748]",0,RLLC,"['r', 'l']",False,109840,001,2024-11-20_15h04.33.293,DelayedPartialReportMethod,2024.1.5,None,2024-11-20 15h04.39.177981 +0530,
39,0,39,0,158.45682370010763,,,,,,,,,158.44185779988766,158.45682370010763,158.95728169986978,159.45802169991657,160.4591922000982,160.4434291999787,160.44344370020553,160.4591922000982,162.46130189998075,162.44519330002367,['s'],[0.6862321002408862],[0.06552409986034036],1,QVHT,['s'],False,109840,001,2024-11-20_15h04.33.293,DelayedPartialReportMethod,2024.1.5,None,2024-11-20 15h04.39.177981 +0530,
40,0,40,0,162.46130189998075,,,,,,,,,162.44609150011092,162.46130189998075,162.9619362000376,163.46300379978493,164.46334020001814,164.4478043001145,164.44783530011773,164.46334020001814,166.46560649992898,166.45019919984043,['m'],[0.5496084000915289],[0.07875399990007281],2,MYUH,['m'],False,109840,001,2024-11-20_15h04.33.293,DelayedPartialReportMethod,2024.1.5,None,2024-11-20 15h04.39.177981 +0530,
41,0,41,0,166.46560649992898,,,,,,,,,166.45177830010653,166.46560649992898,166.9662432000041,167.46744529996067,168.468075199984,168.45210279989988,168.4521293998696,168.468075199984,,170.4532874999568,"['s', 'i']","[0.40901160007342696, 0.8395477999001741]","[0.08552729990333319, 0.07519169989973307]",0,GVXM,"['s', 'i']",False,109840,001,2024-11-20_15h04.33.293,DelayedPartialReportMethod,2024.1.5,None,2024-11-20 15h04.39.177981 +0530,
42,0,42,0,170.46969240019098,,,,,,,,,170.4542963001877,170.46969240019098,170.97061489988118,171.4548309999518,172.4555999999866,172.43985510012135,172.43992049992085,172.4555999999866,174.45795870013535,174.44179339986295,"['l', 'o']","[0.33106210036203265, 0.7478269003331661]","[0.08392279967665672, 0.06917449971660972]",1,LOFF,"['l', 'o']",False,109840,001,2024-11-20_15h04.33.293,DelayedPartialReportMethod,2024.1.5,None,2024-11-20 15h04.39.177981 +0530,
43,0,43,0,174.45795870013535,,,,,,,,,174.44302080012858,174.45795870013535,174.95858629979193,175.4588222000748,176.46016740007326,176.44430160010234,176.44431649986655,176.46016740007326,178.46223110007122,178.44607069995254,"['s', 'r']","[0.5589088997803628, 0.8954366999678314]","[0.09760700026527047, 0.07931450009346008]",2,PAJZ,"['s', 'r']",False,109840,001,2024-11-20_15h04.33.293,DelayedPartialReportMethod,2024.1.5,None,2024-11-20 15h04.39.177981 +0530,
44,0,44,0,178.46223110007122,,,,,,,,,178.44689380005002,178.46223110007122,178.96277499990538,179.4636496999301,180.4648234997876,180.44848999986425,180.44850479997694,180.4648234997876,182.46653860015795,182.45066369976848,"['f', 'l']","[0.5166132003068924, 0.7832492999732494]","[0.0792820998467505, 0.05627340031787753]",1,FLXR,"['f', 'l']",False,109840,001,2024-11-20_15h04.33.293,DelayedPartialReportMethod,2024.1.5,None,2024-11-20 15h04.39.177981 +0530,
45,0,45,0,182.46653860015795,,,,,,,,,182.45148599985987,182.46653860015795,182.96726070018485,183.45121459988877,184.45235869986936,184.43630839977413,184.43632389977574,184.45235869986936,186.45438269991428,186.43836170015857,"['x', 'l']","[0.6251559997908771, 1.3337017996236682]","[0.07819070015102625, 0.1089889002032578]",1,XHWZ,"['x', 'l']",False,109840,001,2024-11-20_15h04.33.293,DelayedPartialReportMethod,2024.1.5,None,2024-11-20 15h04.39.177981 +0530,
46,0,46,0,186.45438269991428,,,,,,,,,186.43945739977062,186.45438269991428,186.9550719000399,187.45558469975367,188.45666129980236,188.4404294998385,188.44044379983097,188.45666129980236,190.45881679980084,190.4428420998156,"['e', 'i']","[1.136593300383538, 1.698768500238657]","[0.08942219987511635, 0.08769309986382723]",0,PWKM,"['e', 'i']",False,109840,001,2024-11-20_15h04.33.293,DelayedPartialReportMethod,2024.1.5,None,2024-11-20 15h04.39.177981 +0530,
47,0,47,0,190.45881679980084,,,,,,,,,190.44370179995894,190.45881679980084,190.95942150009796,191.45992380008101,192.46107239974663,192.44489679997787,192.44491569977254,192.46107239974663,194.4629890997894,194.44683180004358,"['q', 'o']","[0.34868199983611703, 0.6116690998896956]","[0.0742174000479281, 0.0794786000624299]",1,QOTM,"['q', 'o']",False,109840,001,2024-11-20_15h04.33.293,DelayedPartialReportMethod,2024.1.5,None,2024-11-20 15h04.39.177981 +0530,
48,0,48,0,194.4629890997894,,,,,,,,,194.44853959977627,194.4629890997894,194.96367379976436,195.46436059987172,196.4651830000803,196.44969670008868,196.44971199985594,196.4651830000803,198.4675333001651,198.4515591999516,['e'],[0.46264850022271276],[0.08276129979640245],0,XPWI,['e'],False,109840,001,2024-11-20_15h04.33.293,DelayedPartialReportMethod,2024.1.5,None,2024-11-20 15h04.39.177981 +0530,
49,0,49,0,198.4675333001651,,,,,,,,,198.45238680019975,198.4675333001651,198.96826389990747,199.4522834001109,200.45298849977553,200.43713629990816,200.43715160014108,200.45298849977553,202.45524769974872,202.43980740010738,['r'],[0.9380801999941468],[0.10750090004876256],0,QKYU,['r'],False,109840,001,2024-11-20_15h04.33.293,DelayedPartialReportMethod,2024.1.5,None,2024-11-20 15h04.39.177981 +0530,
50,0,50,0,202.45524769974872,,,,,,,,,202.44106560014188,202.45524769974872,202.9561626999639,203.45646690018475,204.4577568997629,204.4416311001405,204.4416467999108,204.4577568997629,206.45975250005722,206.44377319980413,"['i', 'l']","[0.31056710006669164, 0.8504727003164589]","[0.0755358999595046, 0.05946319969370961]",1,OHNA,"['i', 'l']",False,109840,001,2024-11-20_15h04.33.293,DelayedPartialReportMethod,2024.1.5,None,2024-11-20 15h04.39.177981 +0530,
51,0,51,0,206.45975250005722,,,,,,,,,206.44492270005867,206.45975250005722,206.9603006998077,207.46086490014568,208.4620861997828,208.44599079992622,208.44600909994915,208.4620861997828,210.46401689993218,210.4482152001001,"['q', 'l']","[0.5786544000729918, 1.2844339003786445]","[0.08796030003577471, 0.08209289982914925]",2,QDST,"['q', 'l']",False,109840,001,2024-11-20_15h04.33.293,DelayedPartialReportMethod,2024.1.5,None,2024-11-20 15h04.39.177981 +0530,
52,0,52,0,210.46401689993218,,,,,,,,,210.44932110002264,210.46401689993218,210.9646410997957,211.4657641001977,212.46646089991555,212.4506359999068,212.45065640006214,212.46646089991555,,214.45234999991953,"['a', 'o']","[1.1417730003595352, 1.436133900191635]","[0.09070939989760518, 0.09215410007163882]",1,YAKD,"['a', 'o']",False,109840,001,2024-11-20_15h04.33.293,DelayedPartialReportMethod,2024.1.5,None,2024-11-20 15h04.39.177981 +0530,
53,0,53,0,214.46861970005557,,,,,,,,,214.45356740010902,214.46861970005557,214.9693698999472,215.45342339994386,216.45423449994996,216.4383252998814,216.43834109976888,216.45423449994996,218.45620100013912,218.4402276999317,"['p', 'r']","[1.1699010003358126, 1.4953610002994537]","[0.0742064998485148, 0.08549189986661077]",0,RROR,"['p', 'r']",False,109840,001,2024-11-20_15h04.33.293,DelayedPartialReportMethod,2024.1.5,None,2024-11-20 15h04.39.177981 +0530,
54,0,54,0,218.45620100013912,,,,,,,,,218.44134309981018,218.45620100013912,218.95693780016154,219.45746510010213,220.458815400023,220.44268599990755,220.44270019978285,220.458815400023,222.46100550005212,222.4445258001797,"['f', 'r']","[0.24201619997620583, 0.4312529996968806]","[0.09851299971342087, 0.07601509988307953]",1,FPKX,"['f', 'r']",False,109840,001,2024-11-20_15h04.33.293,DelayedPartialReportMethod,2024.1.5,None,2024-11-20 15h04.39.177981 +0530,
55,0,55,0,222.46100550005212,,,,,,,,,222.4453348000534,222.46100550005212,222.9614134998992,223.46168980002403,224.46260009985417,224.44691450009122,224.4469296000898,224.46260009985417,226.4649819000624,226.4493229999207,"['e', 'p']","[0.981137600261718, 1.118235600180924]","[0.08760189963504672, 0.0588255999609828]",2,WVIE,"['e', 'p']",False,109840,001,2024-11-20_15h04.33.293,DelayedPartialReportMethod,2024.1.5,None,2024-11-20 15h04.39.177981 +0530,
56,0,56,0,226.4649819000624,,,,,,,,,226.45100989984348,226.4649819000624,226.96576370019466,227.46650329977274,228.46725959982723,228.45166100002825,228.4516770998016,228.46725959982723,,230.45311339991167,None,,,0,SUUJ,None,False,109840,001,2024-11-20_15h04.33.293,DelayedPartialReportMethod,2024.1.5,None,2024-11-20 15h04.39.177981 +0530,
57,0,57,0,230.46936899982393,,,,,,,,,230.45372670004144,230.46936899982393,230.97035840013996,231.454236399848,232.45565290004015,232.43932119989768,232.43933549989015,232.45565290004015,234.45746740000322,234.441239700187,"['v', 't']","[0.2864157003350556, 0.5260711000300944]","[0.07030809996649623, 0.06813300028443336]",2,VTKR,"['v', 't']",False,109840,001,2024-11-20_15h04.33.293,DelayedPartialReportMethod,2024.1.5,None,2024-11-20 15h04.39.177981 +0530,
58,0,58,0,234.45746740000322,,,,,,,,,234.4424008000642,234.45746740000322,234.95789569988847,235.4583943001926,236.45896960003302,236.44332630001009,236.4433470000513,236.45896960003302,238.46193110011518,238.4455229002051,"['c', 'l']","[0.5398107003420591, 0.9280730001628399]","[0.07959059998393059, 0.03565810015425086]",2,OLXG,"['c', 'l']",False,109840,001,2024-11-20_15h04.33.293,DelayedPartialReportMethod,2024.1.5,None,2024-11-20 15h04.39.177981 +0530,
59,0,59,0,238.46193110011518,,,,,,,,,238.44637650018558,238.46193110011518,238.96257360000163,239.46252259984612,240.46375779993832,240.44855940015987,240.44857389992103,240.46375779993832,242.4660585001111,242.4503476000391,['n'],[1.1997134000994265],[0.08856450021266937],2,EKXQ,['n'],False,109840,001,2024-11-20_15h04.33.293,DelayedPartialReportMethod,2024.1.5,None,2024-11-20 15h04.39.177981 +0530,
60,0,60,0,242.4660585001111,,,,,,,,,242.45128870010376,242.4660585001111,242.9666792000644,243.46725519979373,244.4682689998299,244.45248189987615,244.4524976001121,244.4682689998299,,246.45357100013644,"['r', 'i']","[0.910687199793756, 1.1976352999918163]","[0.08969350019469857, 0.08092179987579584]",0,RIDR,"['r', 'i']",False,109840,001,2024-11-20_15h04.33.293,DelayedPartialReportMethod,2024.1.5,None,2024-11-20 15h04.39.177981 +0530,
61,0,61,0,246.4705813997425,,,,,,,,,246.4551735999994,246.4705813997425,246.97098799981177,247.45503599988297,248.45615650014952,248.44032019982114,248.44033790007234,248.45615650014952,250.45831689983606,250.44235150003806,"['d', 'e']","[0.8837946001440287, 1.1000294000841677]","[0.08533350005745888, 0.08654540032148361]",1,WZYQ,"['d', 'e']",False,109840,001,2024-11-20_15h04.33.293,DelayedPartialReportMethod,2024.1.5,None,2024-11-20 15h04.39.177981 +0530,
62,0,62,0,250.45831689983606,,,,,,,,,250.44318810012192,250.45831689983606,250.95932879997417,251.45937669975683,252.460562299937,252.44466840010136,252.44468339998275,252.460562299937,254.46247769985348,254.4467152999714,"['e', 'd']","[0.4031559997238219, 0.9113579001277685]","[0.08698540041223168, 0.07427169987931848]",0,IJHR,"['e', 'd']",False,109840,001,2024-11-20_15h04.33.293,DelayedPartialReportMethod,2024.1.5,None,2024-11-20 15h04.39.177981 +0530,
63,0,63,0,254.46247769985348,,,,,,,,,254.44752269983292,254.46247769985348,254.96329129999503,255.46364980004728,256.46466560009867,256.44890430010855,256.44892229977995,256.46466560009867,258.4669429999776,258.45116510009393,"['e', 'b']","[0.3210573000833392, 0.766043399926275]","[0.09409729996696115, 0.08615519991144538]",2,FZIY,"['e', 'b']",False,109840,001,2024-11-20_15h04.33.293,DelayedPartialReportMethod,2024.1.5,None,2024-11-20 15h04.39.177981 +0530,
64,0,64,0,258.4669429999776,,,,,,,,,258.452297099866,258.4669429999776,258.9675214001909,259.4515629000962,260.4528892999515,260.4368719998747,260.4368869997561,260.4528892999515,262.45491989981383,262.4389992998913,"['b', 'q']","[0.6627295003272593, 0.8526085000485182]","[0.08249259972944856, 0.08282320015132427]",1,BQKE,"['b', 'q']",False,109840,001,2024-11-20_15h04.33.293,DelayedPartialReportMethod,2024.1.5,None,2024-11-20 15h04.39.177981 +0530,
65,0,65,0,262.45491989981383,,,,,,,,,262.4401921001263,262.45491989981383,262.9553596000187,263.4560350999236,264.45689840009436,264.44109269976616,264.441107199993,264.45689840009436,266.4591418001801,266.44424889981747,['q'],[0.7194071998819709],[0.08463979978114367],0,GBJP,['q'],False,109840,001,2024-11-20_15h04.33.293,DelayedPartialReportMethod,2024.1.5,None,2024-11-20 15h04.39.177981 +0530,
66,0,66,0,266.4591418001801,,,,,,,,,266.4451299998909,266.4591418001801,266.95977619988844,267.4605000000447,268.46147629991174,268.4459329000674,268.44594680005684,268.46147629991174,270.46357889985666,270.44769509974867,"['w', 'q', 'e']","[0.04716859990730882, 0.27454369980841875, 0.7395104998722672]","[0.10861240001395345, 0.08270310005173087, 0.08598140021786094]",0,WQRC,"['w', 'q', 'e']",False,109840,001,2024-11-20_15h04.33.293,DelayedPartialReportMethod,2024.1.5,None,2024-11-20 15h04.39.177981 +0530,
67,0,67,0,270.46357889985666,,,,,,,,,270.4487943002023,270.46357889985666,270.96416079998016,271.46470770007,272.4662048998289,272.45021899975836,272.45023680012673,272.4662048998289,274.46784969978034,274.4522004998289,"['c', 'x', 'n']","[0.42731619998812675, 0.780910300090909, 1.2376764002256095]","[0.07178799994289875, 0.06549099972471595, 0.07572839967906475]",0,CXNW,"['c', 'x', 'n']",False,109840,001,2024-11-20_15h04.33.293,DelayedPartialReportMethod,2024.1.5,None,2024-11-20 15h04.39.177981 +0530,
68,0,68,0,274.46784969978034,,,,,,,,,274.4537590998225,274.46784969978034,274.9686420997605,275.452680000104,276.45352880004793,276.4379513999447,276.4379722997546,276.45352880004793,278.4556296998635,278.4397138999775,"['u', 'e']","[0.8657812001183629, 1.5387305999174714]","[0.0826554000377655, 0.100250200368464]",2,DOVA,"['u', 'e']",False,109840,001,2024-11-20_15h04.33.293,DelayedPartialReportMethod,2024.1.5,None,2024-11-20 15h04.39.177981 +0530,
69,0,69,0,278.4556296998635,,,,,,,,,278.4405791000463,278.4556296998635,278.9563385997899,279.45694730011746,280.45806840015575,280.44247179990634,280.4424911001697,280.45806840015575,282.4602072001435,282.44417010014877,"['d', 'h']","[0.10831760009750724, 1.2653199001215398]","[0.09540579980239272, 0.07412290014326572]",1,EDFK,"['d', 'h']",False,109840,001,2024-11-20_15h04.33.293,DelayedPartialReportMethod,2024.1.5,None,2024-11-20 15h04.39.177981 +0530,
70,0,70,0,282.4602072001435,,,,,,,,,282.44505630014464,282.4602072001435,282.96089279977605,283.4614877998829,284.4622210999951,284.4465246000327,284.4465453000739,284.4622210999951,286.46457890002057,286.44953469978645,"['j', 'g']","[0.6149051999673247, 0.8757682000286877]","[0.07637530006468296, 0.07746819965541363]",1,JGAK,"['j', 'g']",False,109840,001,2024-11-20_15h04.33.293,DelayedPartialReportMethod,2024.1.5,None,2024-11-20 15h04.39.177981 +0530,
71,0,71,0,286.46457890002057,,,,,,,,,286.45040059974417,286.46457890002057,286.96522040013224,287.46555780014023,288.46670620003715,288.4512038999237,288.4512237999588,288.46670620003715,,290.4524747999385,"['e', 'd']","[0.3631171998567879, 0.6646678997203708]","[0.09044829988852143, 0.06826750002801418]",0,DCJP,"['e', 'd']",False,109840,001,2024-11-20_15h04.33.293,DelayedPartialReportMethod,2024.1.5,None,2024-11-20 15h04.39.177981 +0530,
72,0,72,0,290.468952300027,,,,,,,,,290.45380670018494,290.468952300027,290.9695255002007,291.45343839982525,292.45463809976354,292.4385322998278,292.43854730017483,292.45463809976354,294.4565193997696,294.44108959985897,"['c', 'j']","[0.17634870018810034, 0.6573375002481043]","[0.07921939995139837, 0.07063179975375533]",0,CJZQ,"['c', 'j']",False,109840,001,2024-11-20_15h04.33.293,DelayedPartialReportMethod,2024.1.5,None,2024-11-20 15h04.39.177981 +0530,
73,0,73,0,294.4565193997696,,,,,,,,,294.4422645000741,294.4565193997696,294.95741900010034,295.4581324001774,296.45906279981136,296.44283920014277,296.44285340001807,296.45906279981136,298.4611345999874,298.44525500014424,"['c', 'j']","[1.6878174003213644, 1.863162100315094]","[0.08626409992575645, 0.06873899977654219]",0,GGYC,"['c', 'j']",False,109840,001,2024-11-20_15h04.33.293,DelayedPartialReportMethod,2024.1.5,None,2024-11-20 15h04.39.177981 +0530,
74,0,74,0,298.4611345999874,,,,,,,,,298.44640079978853,298.4611345999874,298.9616653001867,299.4617491001263,300.4635072001256,300.4473775997758,300.4473975999281,300.4635072001256,302.46555730002,302.44968880014494,"['l', 'p']","[0.5636407998390496, 0.8948256997391582]","[0.08217049995437264, 0.06632290035486221]",2,ATLL,"['l', 'p']",False,109840,001,2024-11-20_15h04.33.293,DelayedPartialReportMethod,2024.1.5,None,2024-11-20 15h04.39.177981 +0530,
75,0,75,0,302.46555730002,,,,,,,,,302.4506101999432,302.46555730002,302.9658319000155,303.4666397999972,304.46769660012797,304.45207619993016,304.45209470018744,304.46769660012797,,306.45347619988024,['b'],[0.49953689984977245],[0.0985070001333952],0,BADY,['b'],False,109840,001,2024-11-20_15h04.33.293,DelayedPartialReportMethod,2024.1.5,None,2024-11-20 15h04.39.177981 +0530,
76,0,76,0,306.46997099975124,,,,,,,,,306.45443989988416,306.46997099975124,306.97055729990825,307.4546552998945,308.4553936999291,308.43974789977074,308.43976330012083,308.4553936999291,310.4575840998441,310.44194980012253,"['s', 'd']","[0.01821970008313656, 0.22804499976336956]","[0.09617399983108044, 0.07252180017530918]",1,SDYI,"['s', 'd']",False,109840,001,2024-11-20_15h04.33.293,DelayedPartialReportMethod,2024.1.5,None,2024-11-20 15h04.39.177981 +0530,
77,0,77,0,310.4575840998441,,,,,,,,,310.44277200009674,310.4575840998441,310.958457400091,311.45819979999214,312.4597224998288,312.4439868000336,312.4440024998039,312.4597224998288,314.4620920000598,314.44622860010713,"['e', 'k']","[0.2859172001481056, 0.748832399956882]","[0.09245399991050363, 0.05852500023320317]",2,FXTM,"['e', 'k']",False,109840,001,2024-11-20_15h04.33.293,DelayedPartialReportMethod,2024.1.5,None,2024-11-20 15h04.39.177981 +0530,
78,0,78,0,314.4620920000598,,,,,,,,,314.44735189992934,314.4620920000598,314.9627074999735,315.46338880015537,316.46482970006764,316.44854199979454,316.44855650002137,316.46482970006764,318.46655659982935,318.45073879975826,"['e', 'r']","[0.3786081001162529, 0.7533038998953998]","[0.08517730003222823, 0.08363030012696981]",0,EVEY,"['e', 'r']",False,109840,001,2024-11-20_15h04.33.293,DelayedPartialReportMethod,2024.1.5,None,2024-11-20 15h04.39.177981 +0530,
79,0,79,0,318.46655659982935,,,,,,,,,318.4518808000721,318.46655659982935,318.9676096998155,319.4671026999131,,320.452189899981,320.45220900001004,320.46888019982725,,322.4544393001124,"['u', 'z']","[0.6420619999989867, 0.9335420997813344]","[0.05842519970610738, 0.08548679994419217]",1,UZHH,"['u', 'z']",False,109840,001,2024-11-20_15h04.33.293,DelayedPartialReportMethod,2024.1.5,None,2024-11-20 15h04.39.177981 +0530,
80,0,80,0,322.47083880007267,,,,,,,,,322.4553390000947,322.47083880007267,322.97157010016963,323.45540829980746,324.4565245998092,324.4403180000372,324.4403798999265,324.4565245998092,326.4587420998141,326.44338369974867,"['l', 'm', 'e', 'u']","[0.21797329979017377, 0.44557859981432557, 0.6929660001769662, 1.2195843998342752]","[0.07100070035085082, 0.07502680039033294, 0.09630619967356324, 0.07690820004791021]",2,ZEHN,"['l', 'm', 'e', 'u']",False,109840,001,2024-11-20_15h04.33.293,DelayedPartialReportMethod,2024.1.5,None,2024-11-20 15h04.39.177981 +0530,
81,0,81,0,326.4587420998141,,,,,,,,,326.4445688999258,326.4587420998141,326.9591914000921,327.45965520013124,328.4609991000034,328.4451900999993,328.4452049997635,328.4609991000034,330.4633292998187,330.44711309997365,"['o', 'm', 'r']","[0.15760509995743632, 0.4168481999076903, 0.8333801999688148]","[0.08199820015579462, 0.07711660023778677, 0.09012039983645082]",0,UPQM,"['o', 'm', 'r']",False,109840,001,2024-11-20_15h04.33.293,DelayedPartialReportMethod,2024.1.5,None,2024-11-20 15h04.39.177981 +0530,
82,0,82,0,330.4633292998187,,,,,,,,,330.44821560010314,330.4633292998187,330.96356619987637,331.46395550016314,332.46520170010626,332.449235400185,332.44925360009074,332.46520170010626,334.46767160017043,334.45155570004135,"['r', 'p']","[0.3874006001278758, 0.6161124999634922]","[0.09236939996480942, 0.08571600029245019]",0,RPVG,"['r', 'p']",False,109840,001,2024-11-20_15h04.33.293,DelayedPartialReportMethod,2024.1.5,None,2024-11-20 15h04.39.177981 +0530,
83,0,83,0,334.46767160017043,,,,,,,,,334.45250240014866,334.46767160017043,334.9680372001603,335.4521284000948,336.45276209991425,336.437433199957,336.4374548001215,336.45276209991425,338.4556154999882,338.4392928001471,"['m', 't']","[0.17644800012931228, 0.6403874000534415]","[0.042135899886488914, 0.0818567001260817]",2,MTUG,"['m', 't']",False,109840,001,2024-11-20_15h04.33.293,DelayedPartialReportMethod,2024.1.5,None,2024-11-20 15h04.39.177981 +0530,
84,0,84,0,338.4556154999882,,,,,,,,,338.4401595997624,338.4556154999882,338.95579760009423,339.45576049992815,340.4576233001426,340.4416454997845,340.4416609997861,340.4576233001426,342.45947219990194,342.4438257999718,['a'],[0.24877380020916462],[0.08282289979979396],0,KRSP,['a'],False,109840,001,2024-11-20_15h04.33.293,DelayedPartialReportMethod,2024.1.5,None,2024-11-20 15h04.39.177981 +0530,
85,0,85,0,342.45947219990194,,,,,,,,,342.44466610020027,342.45947219990194,342.96023490000516,343.4603813998401,344.46261030016467,344.44599420018494,344.44600989995524,344.46261030016467,346.4638832001947,346.4482309999876,"['p', 'u']","[0.05626659980043769, 0.5184415997937322]","[0.07853309996426105, 0.07321600010618567]",1,IXPU,"['p', 'u']",False,109840,001,2024-11-20_15h04.33.293,DelayedPartialReportMethod,2024.1.5,None,2024-11-20 15h04.39.177981 +0530,
86,0,86,0,346.4638832001947,,,,,,,,,346.4494146001525,346.4638832001947,346.9650300000794,347.46517239976674,348.4665582999587,348.45097899995744,348.4509963998571,348.4665582999587,,350.4519328000024,"['w', 'o']","[0.06439970014616847, 0.9290979998186231]","[0.12079469999298453, 0.08222230011597276]",1,WYOA,"['w', 'o']",False,109840,001,2024-11-20_15h04.33.293,DelayedPartialReportMethod,2024.1.5,None,2024-11-20 15h04.39.177981 +0530,
87,0,87,0,350.4683910999447,,,,,,,,,350.45281459996477,350.4683910999447,350.96919689979404,351.45259749982506,352.45382679998875,352.43791719991714,352.437933600042,352.45382679998875,354.4560002000071,354.4404211998917,['z'],[0.43265620013698936],[0.08416800014674664],2,TVNR,['z'],False,109840,001,2024-11-20_15h04.33.293,DelayedPartialReportMethod,2024.1.5,None,2024-11-20 15h04.39.177981 +0530,
88,0,88,0,354.4560002000071,,,,,,,,,354.4416474997997,354.4560002000071,354.9567772997543,355.45720240008086,356.4578693998046,356.44223459996283,356.4422503998503,356.4578693998046,358.4604853000492,358.444753699936,None,,,1,DXQQ,None,False,109840,001,2024-11-20_15h04.33.293,DelayedPartialReportMethod,2024.1.5,None,2024-11-20 15h04.39.177981 +0530,
89,0,89,0,358.4604853000492,,,,,,,,,358.4453472001478,358.4604853000492,358.96129730017856,359.4613550999202,360.46286199986935,360.4471040000208,360.44711849978194,360.46286199986935,362.46487260004506,362.44893690012395,"['y', 'u']","[0.14037089981138706, 0.30073009990155697]","[0.07876490009948611, 0.08402239996939898]",2,RIGI,"['y', 'u']",False,109840,001,2024-11-20_15h04.33.293,DelayedPartialReportMethod,2024.1.5,None,2024-11-20 15h04.39.177981 +0530,
90,0,90,0,362.46487260004506,,,,,,,,,362.4499781001359,362.46487260004506,362.96562300017104,363.4656076999381,364.46730689983815,364.45101699978113,364.45103619992733,364.46730689983815,,366.4528589001857,['h'],[0.5320345000363886],[0.0700621004216373],1,YVZD,['h'],False,109840,001,2024-11-20_15h04.33.293,DelayedPartialReportMethod,2024.1.5,None,2024-11-20 15h04.39.177981 +0530,
91,0,91,0,366.46901590004563,,,,,,,,,366.45380020001903,366.46901590004563,366.96996170002967,367.45349590014666,368.4550111000426,368.43906470015645,368.4390786997974,368.4550111000426,370.45714779989794,370.44146100012586,"['a', 'm']","[0.47885960014536977, 1.059707300271839]","[None, 0.1317922999151051]",1,AMVM,"['a', 'm']",False,109840,001,2024-11-20_15h04.33.293,DelayedPartialReportMethod,2024.1.5,None,2024-11-20 15h04.39.177981 +0530,
92,0,92,0,370.45714779989794,,,,,,,,,370.44253080012277,370.45714779989794,370.9577389000915,371.45790919987485,372.4591239001602,372.44359060004354,372.4436057000421,372.4591239001602,374.4618258997798,374.4460812998004,['o'],[0.28698650002479553],[0.08904109988361597],0,ZLWI,['o'],False,109840,001,2024-11-20_15h04.33.293,DelayedPartialReportMethod,2024.1.5,None,2024-11-20 15h04.39.177981 +0530,
93,0,93,0,374.4618258997798,,,,,,,,,374.44694849988446,374.4618258997798,374.9624056001194,375.46230870019644,376.4635942000896,376.4481234000996,376.4481434999034,376.4635942000896,378.4660355001688,378.45013580005616,['m'],[0.0813672998920083],[0.07066549966111779],2,NGMI,['m'],False,109840,001,2024-11-20_15h04.33.293,DelayedPartialReportMethod,2024.1.5,None,2024-11-20 15h04.39.177981 +0530,
94,0,94,0,378.4660355001688,,,,,,,,,378.45125090004876,378.4660355001688,378.96684039989486,379.4504292998463,380.4516428001225,380.4356447001919,380.4356598001905,380.4516428001225,382.4538908000104,382.4377935999073,"['r', 's']","[0.5474195997230709, 0.8523393999785185]","[0.09193100035190582, 0.09833559999242425]",2,RSUI,"['r', 's']",False,109840,001,2024-11-20_15h04.33.293,DelayedPartialReportMethod,2024.1.5,None,2024-11-20 15h04.39.177981 +0530,
95,0,95,0,382.4538908000104,,,,,,,,,382.4386241999455,382.4538908000104,382.95389659982175,383.45500429999083,384.45575459999964,384.440106799826,384.4401215999387,384.45575459999964,386.45814940007403,386.4424319001846,['c'],[0.8855425999499857],[0.07150070043280721],1,MDOW,['c'],False,109840,001,2024-11-20_15h04.33.293,DelayedPartialReportMethod,2024.1.5,None,2024-11-20 15h04.39.177981 +0530,
96,0,96,0,386.45814940007403,,,,,,,,,386.4433165998198,386.45814940007403,386.95915829995647,387.45912729995325,388.4601805000566,388.4446340999566,388.4446482001804,388.4601805000566,390.4631070997566,390.44727119989693,"['c', 'x']","[0.5719248997047544, 0.8409361997619271]","[0.08268380025401711, 0.07023259997367859]",1,CXNX,"['c', 'x']",False,109840,001,2024-11-20_15h04.33.293,DelayedPartialReportMethod,2024.1.5,None,2024-11-20 15h04.39.177981 +0530,
97,0,97,0,390.4631070997566,,,,,,,,,390.4483382999897,390.4631070997566,390.9631523997523,391.4636438000016,392.46478669997305,392.4488908997737,392.44890820002183,392.46478669997305,394.4670267999172,394.4511528001167,"['l', 'd', 'u']","[0.25211399979889393, 1.6212295000441372, 1.8211682997643948]","[0.0927606001496315, 0.08980139996856451, 0.08468430023640394]",0,LDDO,"['l', 'd', 'u']",False,109840,001,2024-11-20_15h04.33.293,DelayedPartialReportMethod,2024.1.5,None,2024-11-20 15h04.39.177981 +0530,
98,0,98,0,394.4670267999172,,,,,,,,,394.45199600001797,394.4670267999172,394.96740419976413,395.45139139983803,396.4522767998278,396.4365087999031,396.43652920005843,396.4522767998278,398.4545172001235,398.4386641997844,"['o', 'f']","[0.05001539969816804, 0.615578499622643]","[0.07243990013375878, 0.08331880019977689]",0,OFUA,"['o', 'f']",False,109840,001,2024-11-20_15h04.33.293,DelayedPartialReportMethod,2024.1.5,None,2024-11-20 15h04.39.177981 +0530,
99,0,99,0,398.4545172001235,,,,,,,,,398.43977120006457,398.4545172001235,398.9553640000522,399.45545580005273,400.4569109999575,400.44113959977403,400.4411573000252,400.4569109999575,402.4592869998887,402.4432022999972,"['j', 'e']","[0.9759808001108468, 1.0755741000175476]","[0.062191699631512165, 0.0786085999570787]",0,JVIM,"['j', 'e']",False,109840,001,2024-11-20_15h04.33.293,DelayedPartialReportMethod,2024.1.5,None,2024-11-20 15h04.39.177981 +0530,
