trials.thisRepN,trials.thisTrialN,trials.thisN,trials.thisIndex,thisRow.t,notes,introduction.started,text.started,key_resp.started,introduction.stopped,key_resp.keys,key_resp.rt,key_resp.duration,trial.started,letter_grid.started,letter_grid.stopped,row_cue.started,row_cue.stopped,trial.stopped,response_routine.started,response.started,response_routine.stopped,response.keys,Cued Row,Correct Row,Participant Response,Is Correct,response.stopped,response.rt,response.duration,participant,session,date,expName,psychopyVersion,frameRate,expStart,
,,,,,,0.002966600004583597,0.016771499998867512,0.016771499998867512,22.262661200016737,space,22.23999739997089,None,,,,,,,,,,,,,,,,,,631606,001,2024-11-17_23h40.23.855,DelayedPartialReportMethod,2024.1.5,None,2024-11-17 23h40.28.502993 +0530,
0,0,0,0,22.280401600059122,,,,,,,,,22.26446930016391,22.280401600059122,22.79189780005254,23.2757084001787,24.276611200068146,24.260774499969557,24.260792799992487,24.276611200068146,29.26584620005451,None,2,GSQX,None,False,,,,631606,001,2024-11-17_23h40.23.855,DelayedPartialReportMethod,2024.1.5,None,2024-11-17 23h40.28.502993 +0530,
1,0,1,0,29.345059199957177,,,,,,,,,29.26689269999042,29.345059199957177,29.849424400134012,30.266649400116876,31.26789030013606,31.252195399953052,31.252213899977505,31.26789030013606,36.257872899994254,"['s', 'f', 's', 'k', 'l']",1,CBRS,"['s', 'f', 's', 'k', 'l']",False,36.27316790004261,"[1.1768394000828266, 1.180036500096321, 1.767891600029543, 1.7734894000459462, 1.8329640999436378]","[0.3003473998978734, 0.07055879989638925, 0.28350099991075695, 0.3076092000119388, 0.22477460000663996]",631606,001,2024-11-17_23h40.23.855,DelayedPartialReportMethod,2024.1.5,None,2024-11-17 23h40.28.502993 +0530,
2,0,2,0,36.27316790004261,,,,,,,,,36.258861700072885,36.27316790004261,36.77405730006285,37.27431660005823,38.27481390000321,38.25925810006447,38.259283300023526,38.27481390000321,43.26467439997941,['f'],2,ATAK,['f'],False,,[1.2509463999886066],[0.22854980011470616],631606,001,2024-11-17_23h40.23.855,DelayedPartialReportMethod,2024.1.5,None,2024-11-17 23h40.28.502993 +0530,
3,0,3,0,43.28104320005514,,,,,,,,,43.265944600105286,43.28104320005514,43.78192450013012,44.265605200082064,45.26687100017443,45.25062549998984,45.25064039998688,45.26687100017443,50.25661729997955,"['v', 'q']",0,VQOT,"['v', 'q']",False,50.27247090009041,"[0.634949600091204, 1.1102905999869108]","[0.2767010999377817, 0.26218670001253486]",631606,001,2024-11-17_23h40.23.855,DelayedPartialReportMethod,2024.1.5,None,2024-11-17 23h40.28.502993 +0530,
4,0,4,0,50.27247090009041,,,,,,,,,50.257937600137666,50.27247090009041,50.77267930004746,51.27340140007436,52.27421690011397,52.25849370006472,52.258511499967426,52.27421690011397,57.263358999975026,"['i', 'a']",0,IAUC,"['i', 'a']",False,,"[0.79508710000664, 1.1640130998566747]","[0.23321099998429418, 0.22422900004312396]",631606,001,2024-11-17_23h40.23.855,DelayedPartialReportMethod,2024.1.5,None,2024-11-17 23h40.28.502993 +0530,
5,0,5,0,57.27980999997817,,,,,,,,,57.26482779998332,57.27980999997817,57.78053980018012,58.26434970018454,59.265273600118235,59.24975590012036,59.24977009999566,59.265273600118235,64.25517460005358,"['g', 'c']",2,GGGW,"['g', 'c']",False,64.27074209996499,"[1.1897980999201536, 1.4720568000338972]","[0.21057120012119412, 0.2734836000017822]",631606,001,2024-11-17_23h40.23.855,DelayedPartialReportMethod,2024.1.5,None,2024-11-17 23h40.28.502993 +0530,
6,0,6,0,64.27074209996499,,,,,,,,,64.25600769999437,64.27074209996499,64.771319600055,65.2712554000318,66.27285649999976,66.25719180004671,66.25720780016854,66.27285649999976,71.26296310010366,"['x', 'x', 'a']",0,YAEX,"['x', 'x', 'a']",False,71.27859700005502,"[0.28973179985769093, 1.0384267000481486, 1.4802528000436723]","[0.15261770016513765, 0.23145389999262989, 0.2634832998737693]",631606,001,2024-11-17_23h40.23.855,DelayedPartialReportMethod,2024.1.5,None,2024-11-17 23h40.28.502993 +0530,
7,0,7,0,71.27859700005502,,,,,,,,,71.26405700016767,71.27859700005502,71.77894530002959,72.2633873000741,73.26407669996843,73.24833760014735,73.2483514000196,73.26407669996843,78.25399690004997,"['h', 'z']",1,HZZR,"['h', 'z']",False,78.26944970013574,"[0.04716219985857606, 0.5004501999355853]","[0.22441410017199814, 0.3540668999776244]",631606,001,2024-11-17_23h40.23.855,DelayedPartialReportMethod,2024.1.5,None,2024-11-17 23h40.28.502993 +0530,
8,0,8,0,78.26944970013574,,,,,,,,,78.25503230001777,78.26944970013574,78.77001500013284,79.27125350013375,80.27190400008112,80.25638570007868,80.25640060007572,80.27190400008112,85.26127570006065,"['q', 'a']",0,OAWB,"['q', 'a']",False,85.27734380005859,"[0.3717912998981774, 0.9254618999548256]","[0.2805574000813067, 0.23756120004691184]",631606,001,2024-11-17_23h40.23.855,DelayedPartialReportMethod,2024.1.5,None,2024-11-17 23h40.28.502993 +0530,
9,0,9,0,85.27734380005859,,,,,,,,,85.26214710017666,85.27734380005859,85.77799620013684,86.26190389995463,87.26295160013251,87.24636590015143,87.24638570006937,87.26295160013251,92.25256550009362,"['h', 'i']",0,HHIN,"['h', 'i']",False,92.26840559998527,"[0.22942009987309575, 0.49453140003606677]","[0.24162250012159348, 0.198830499779433]",631606,001,2024-11-17_23h40.23.855,DelayedPartialReportMethod,2024.1.5,None,2024-11-17 23h40.28.502993 +0530,
10,0,10,0,92.26840559998527,,,,,,,,,92.2536437001545,92.26840559998527,92.76866280008107,93.26951820007525,94.2708743000403,94.2547073001042,94.25472430000082,94.2708743000403,99.26025170017965,"['c', 'v']",2,CCLN,"['c', 'v']",False,99.27628490002826,"[1.5709381999913603, 1.9047767000738531]","[0.2103142999112606, 0.23142239986918867]",631606,001,2024-11-17_23h40.23.855,DelayedPartialReportMethod,2024.1.5,None,2024-11-17 23h40.28.502993 +0530,
11,0,11,0,99.27628490002826,,,,,,,,,99.26110610016622,99.27628490002826,99.77654380002059,100.27781800017692,101.27805860014632,101.26251170015894,101.26253050006926,101.27805860014632,106.267881100066,"['q', 'j']",0,QJVK,"['q', 'j']",False,,"[0.9944637999869883, 1.3507110998034477]","[0.28174609993584454, 0.2341636000201106]",631606,001,2024-11-17_23h40.23.855,DelayedPartialReportMethod,2024.1.5,None,2024-11-17 23h40.28.502993 +0530,
12,0,12,0,106.28407329996116,,,,,,,,,106.26877319999039,106.28407329996116,106.78464410011657,107.26814790000208,108.26900129998103,108.254101900151,108.25412419997156,108.26900129998103,113.25928140012547,"['e', 'f']",0,EFND,"['e', 'f']",False,113.27473650011234,"[0.26285529998131096, 0.5629990000743419]","[0.2559874001890421, 0.27570020011626184]",631606,001,2024-11-17_23h40.23.855,DelayedPartialReportMethod,2024.1.5,None,2024-11-17 23h40.28.502993 +0530,
13,0,13,0,113.27473650011234,,,,,,,,,113.26021390012465,113.27473650011234,113.77556250011548,114.27577479998581,115.2772588999942,115.26114910002798,115.2611630000174,115.2772588999942,120.26584240002558,"['o', 'l']",1,OLYW,"['o', 'l']",False,,"[0.18132570013403893, 0.5246776000130922]","[0.23865829990245402, 0.2768035000190139]",631606,001,2024-11-17_23h40.23.855,DelayedPartialReportMethod,2024.1.5,None,2024-11-17 23h40.28.502993 +0530,
14,0,14,0,120.28232070012018,,,,,,,,,120.26691150013357,120.28232070012018,120.78296600002795,121.2673061999958,122.2689402999822,122.2522243000567,122.25233420007862,122.2689402999822,127.25813239999115,"['j', 'p']",1,JPEW,"['j', 'p']",False,127.27365210000426,"[0.24142410000786185, 1.0864973000716418]","[0.23680160008370876, 0.2055043000727892]",631606,001,2024-11-17_23h40.23.855,DelayedPartialReportMethod,2024.1.5,None,2024-11-17 23h40.28.502993 +0530,
15,0,15,0,127.27365210000426,,,,,,,,,127.25895940000191,127.27365210000426,127.77407360007055,128.2747653000988,129.27620570012368,129.26003040000796,129.26004620012827,129.27620570012368,134.26543779997155,"['p', 's', 'e', 't']",0,FTTC,"['p', 's', 'e', 't']",False,,"[0.4990254999138415, 0.8572547000367194, 1.2489724999759346, 1.7387788998894393]","[0.29232640005648136, 0.2710945999715477, 0.3069271999411285, 0.24743050010874867]",631606,001,2024-11-17_23h40.23.855,DelayedPartialReportMethod,2024.1.5,None,2024-11-17 23h40.28.502993 +0530,
16,0,16,0,134.28097030008212,,,,,,,,,134.26643880014308,134.28097030008212,134.781890100101,135.26598959998228,136.26686810003594,136.2509312001057,136.25094579998404,136.26686810003594,141.25691640004516,"['g', 'l']",2,GLMF,"['g', 'l']",False,141.2730556000024,"[0.44470609980635345, 0.7695505998563021]","[0.24572450015693903, 0.2468242000322789]",631606,001,2024-11-17_23h40.23.855,DelayedPartialReportMethod,2024.1.5,None,2024-11-17 23h40.28.502993 +0530,
17,0,17,0,141.2730556000024,,,,,,,,,141.25798010011204,141.2730556000024,141.77275440003723,142.27346890000626,143.27524530002847,143.2591248000972,143.25914010009728,143.27524530002847,148.26366350008175,"['f', 's']",2,AFTI,"['f', 's']",False,,"[1.5880483998917043, 1.8487576998304576]","[0.2706975000910461, 0.3230583001859486]",631606,001,2024-11-17_23h40.23.855,DelayedPartialReportMethod,2024.1.5,None,2024-11-17 23h40.28.502993 +0530,
18,0,18,0,148.279840500094,,,,,,,,,148.2646163001191,148.279840500094,148.78051870013587,149.2643685999792,150.26569820009172,150.24948929995298,150.2495144000277,150.26569820009172,155.25515610002913,"['v', 'x']",1,RSYT,"['v', 'x']",False,155.27108740014955,"[0.5868780999444425, 1.281751099973917]","[0.20823090011253953, 0.26144960010424256]",631606,001,2024-11-17_23h40.23.855,DelayedPartialReportMethod,2024.1.5,None,2024-11-17 23h40.28.502993 +0530,
19,0,19,0,155.27108740014955,,,,,,,,,155.25596490013413,155.27108740014955,155.7717289000284,156.27221420011483,157.27445120015182,157.25774869997986,157.2577631000895,157.27445120015182,162.2633124999702,"['t', 'v']",0,TVLG,"['t', 'v']",False,162.27975039999,"[0.23198449984192848, 0.9346354999579489]","[0.2622624000068754, 0.2139222000259906]",631606,001,2024-11-17_23h40.23.855,DelayedPartialReportMethod,2024.1.5,None,2024-11-17 23h40.28.502993 +0530,
20,0,20,0,162.27975039999,,,,,,,,,162.26423860015348,162.27975039999,162.78004910005257,163.2632872001268,164.26433070003986,164.24891820014454,164.24893270013854,164.26433070003986,169.25453589996323,"['d', 'd']",2,ZJQG,"['d', 'd']",False,169.27006460004486,"[0.7826347998343408, 1.0014686998911202]","[0.1781517001800239, 0.1590716999489814]",631606,001,2024-11-17_23h40.23.855,DelayedPartialReportMethod,2024.1.5,None,2024-11-17 23h40.28.502993 +0530,
21,0,21,0,169.27006460004486,,,,,,,,,169.25563840009272,169.27006460004486,169.7704275001306,170.27135960012674,171.27245070016943,171.25661580008455,171.25663150008768,171.27245070016943,176.26157580013387,"['a', 'r']",2,ARMP,"['a', 'r']",False,176.27779390010983,"[0.1001995000988245, 0.5362098000478]","[0.23982249991968274, 0.24557500006631017]",631606,001,2024-11-17_23h40.23.855,DelayedPartialReportMethod,2024.1.5,None,2024-11-17 23h40.28.502993 +0530,
22,0,22,0,176.27779390010983,,,,,,,,,176.26238460000604,176.27779390010983,176.77811910002492,177.26213859999552,178.26300400006585,178.2474456001073,178.2474601001013,178.26300400006585,183.25290660001338,"['o', 'f', 'g']",1,OGIM,"['o', 'f', 'g']",False,183.26847240002826,"[0.08234720001928508, 0.4188799001276493, 1.1035587000660598]","[0.2562086000107229, 0.23870210000313818, 0.24165250011719763]",631606,001,2024-11-17_23h40.23.855,DelayedPartialReportMethod,2024.1.5,None,2024-11-17 23h40.28.502993 +0530,
23,0,23,0,183.26847240002826,,,,,,,,,183.2537708999589,183.26847240002826,183.7691379999742,184.26959090004675,185.27125970018096,185.25513250008225,185.2551470999606,185.27125970018096,190.26108650001697,"['g', 'b']",0,GBLW,"['g', 'b']",False,190.2762327999808,"[0.2671032000798732, 0.5253800000064075]","[0.23787509999237955, 0.20087939989753067]",631606,001,2024-11-17_23h40.23.855,DelayedPartialReportMethod,2024.1.5,None,2024-11-17 23h40.28.502993 +0530,
24,0,24,0,190.2762327999808,,,,,,,,,190.2620932001155,190.2762327999808,190.77683780016378,191.2773696000222,192.27808700012974,192.26209280011244,192.2621113001369,192.27808700012974,197.26787420012988,"['c', 'r']",2,CSRC,"['c', 'r']",False,,"[0.19181389990262687, 0.7286322999279946]","[0.2606917000375688, 0.2379695000126958]",631606,001,2024-11-17_23h40.23.855,DelayedPartialReportMethod,2024.1.5,None,2024-11-17 23h40.28.502993 +0530,
25,0,25,0,197.28406279999763,,,,,,,,,197.26874730014242,197.28406279999763,197.7849894000683,198.26861679996364,199.26950350007974,199.2539284999948,199.25394520000555,199.26950350007974,204.25883279996924,['q'],2,SQLN,['q'],False,204.27528410009108,[0.2530658000614494],[0.21828889986500144],631606,001,2024-11-17_23h40.23.855,DelayedPartialReportMethod,2024.1.5,None,2024-11-17 23h40.28.502993 +0530,
26,0,26,0,204.27528410009108,,,,,,,,,204.2598143001087,204.27528410009108,204.7757337000221,205.27695009997115,206.2772380001843,206.26222570007667,206.2622414000798,206.2772380001843,211.2663738001138,"['o', 'u']",1,OUOO,"['o', 'u']",False,,"[0.754994299961254, 1.0665188999846578]","[0.2665011000353843, 0.19526579999364913]",631606,001,2024-11-17_23h40.23.855,DelayedPartialReportMethod,2024.1.5,None,2024-11-17 23h40.28.502993 +0530,
27,0,27,0,211.2827169999946,,,,,,,,,211.26734420005232,211.2827169999946,211.78344080015086,212.26716389996,213.2684810999781,213.25241920002736,213.25243770005181,213.2684810999781,218.2590674001258,"['m', 'p']",2,MPVF,"['m', 'p']",False,218.27402230002917,"[0.02129660011269152, 0.7862345001194626]","[0.2437130999751389, 0.22738059982657433]",631606,001,2024-11-17_23h40.23.855,DelayedPartialReportMethod,2024.1.5,None,2024-11-17 23h40.28.502993 +0530,
28,0,28,0,218.27402230002917,,,,,,,,,218.25988480006345,218.27402230002917,218.7747502999846,219.27503550006077,220.2764014999848,220.26041910005733,220.26043800008483,220.2764014999848,225.26520669995807,"['p', 'o']",0,PUUR,"['p', 'o']",False,,"[0.4594576999079436, 0.7764703000430018]","[0.21397859998978674, 0.2719039998482913]",631606,001,2024-11-17_23h40.23.855,DelayedPartialReportMethod,2024.1.5,None,2024-11-17 23h40.28.502993 +0530,
29,0,29,0,225.2816816000268,,,,,,,,,225.26614820002578,225.2816816000268,225.78239529998973,226.26580940000713,227.26726890006103,227.25126320007257,227.25128520000726,227.26726890006103,232.25697570014745,"['z', 'y']",2,ZYEC,"['z', 'y']",False,232.27263620006852,"[0.21128679998219013, 0.5645087999291718]","[0.2759332999121398, 0.17532670008949935]",631606,001,2024-11-17_23h40.23.855,DelayedPartialReportMethod,2024.1.5,None,2024-11-17 23h40.28.502993 +0530,
30,0,30,0,232.27263620006852,,,,,,,,,232.25799369998276,232.27263620006852,232.7732784000691,233.27382620004937,234.2755410000682,234.25888610002585,234.2589082000777,234.2755410000682,239.2636072000023,"['e', 'q']",2,EOON,"['e', 'q']",False,,"[0.18067499995231628, 0.9367327999789268]","[0.3307622999418527, 0.2872301999013871]",631606,001,2024-11-17_23h40.23.855,DelayedPartialReportMethod,2024.1.5,None,2024-11-17 23h40.28.502993 +0530,
31,0,31,0,239.28020470007323,,,,,,,,,239.26466129999608,239.28020470007323,239.78091099997982,240.26495330012403,241.26603300007991,241.25025729998015,241.2502792000305,241.26603300007991,246.2556620000396,"['k', 'k', 'y', 'a']",1,KRYA,"['k', 'k', 'y', 'a']",False,246.27140410011634,"[0.001258899923413992, 0.2369145001284778, 0.6037024999968708, 0.8572462999727577]","[0.14625720004551113, 0.16126309987157583, 0.18824200006201863, 0.25577639997936785]",631606,001,2024-11-17_23h40.23.855,DelayedPartialReportMethod,2024.1.5,None,2024-11-17 23h40.28.502993 +0530,
32,0,32,0,246.27140410011634,,,,,,,,,246.25653630006127,246.27140410011634,246.77197140012868,247.27293010009453,248.27393950009719,248.2578370999545,248.25785230007023,248.27393950009719,253.26317090005614,"['t', 'y']",0,TYIA,"['t', 'y']",False,253.27895020018332,"[0.38914830004796386, 0.6396186000201851]","[0.2626122999936342, 0.13758770003914833]",631606,001,2024-11-17_23h40.23.855,DelayedPartialReportMethod,2024.1.5,None,2024-11-17 23h40.28.502993 +0530,
33,0,33,0,253.27895020018332,,,,,,,,,253.2642719000578,253.27895020018332,253.77975310012698,254.26338300015777,255.26469970005564,255.24918869999237,255.24920680001378,255.26469970005564,260.2541247000918,"['m', 'c', 's', 'i']",2,BOJT,"['m', 'c', 's', 'i']",False,260.2706957999617,"[1.427225099876523, 1.857328200014308, 2.313339199870825, 2.6316766999661922]","[0.264188600005582, 0.310148699907586, 0.23553279996849597, 0.21703689987771213]",631606,001,2024-11-17_23h40.23.855,DelayedPartialReportMethod,2024.1.5,None,2024-11-17 23h40.28.502993 +0530,
34,0,34,0,260.2706957999617,,,,,,,,,260.2549446001649,260.2706957999617,260.7707535000518,261.2714197000023,262.27251529996283,262.2568379000295,262.256852600025,262.27251529996283,267.2622750001028,"['t', 'm']",2,CUAZ,"['t', 'm']",False,267.2778416001238,"[1.7681577000766993, 1.9827225001063198]","[0.2535512999165803, 0.24007719988003373]",631606,001,2024-11-17_23h40.23.855,DelayedPartialReportMethod,2024.1.5,None,2024-11-17 23h40.28.502993 +0530,
35,0,35,0,267.2778416001238,,,,,,,,,267.2630996000953,267.2778416001238,267.77864350005984,268.2623568000272,269.26346889999695,269.2482896000147,269.24830420012586,269.26346889999695,274.2531089000404,"['t', 'd', 'd']",0,JDEL,"['t', 'd', 'd']",False,274.2694179001264,"[0.13808690011501312, 0.6011551001574844, 4.030008899979293]","[0.22351689985953271, 0.2329630998428911, 0.31351240002550185]",631606,001,2024-11-17_23h40.23.855,DelayedPartialReportMethod,2024.1.5,None,2024-11-17 23h40.28.502993 +0530,
36,0,36,0,274.2694179001264,,,,,,,,,274.2539497001562,274.2694179001264,274.76943950005807,275.2696136001032,276.27121539996006,276.2551414000336,276.2551606001798,276.27121539996006,281.26152310008183,"['t', 'k', 'd']",0,TKGH,"['t', 'k', 'd']",False,281.27615990000777,"[0.23133310000412166, 0.8284344999119639, 4.467804299900308]","[0.241330899996683, 0.1633560999762267, 0.29978340002708137]",631606,001,2024-11-17_23h40.23.855,DelayedPartialReportMethod,2024.1.5,None,2024-11-17 23h40.28.502993 +0530,
37,0,37,0,281.27615990000777,,,,,,,,,281.2624145001173,281.27615990000777,281.77746530016884,282.2781543000601,283.2794028001372,283.26321650017053,283.2632357000839,283.2794028001372,288.26802009996027,"['i', 'e', 'r']",2,BIEJ,"['i', 'e', 'r']",False,,"[1.7947066999040544, 2.006402299972251, 3.2527313998434693]","[0.22528699995018542, 0.2371525999624282, 0.2146117000374943]",631606,001,2024-11-17_23h40.23.855,DelayedPartialReportMethod,2024.1.5,None,2024-11-17 23h40.28.502993 +0530,
38,0,38,0,288.28454370005056,,,,,,,,,288.26889330009,288.28454370005056,288.78484780015424,289.268791800132,290.27010480011813,290.25396540015936,290.2539810000453,290.27010480011813,295.25957400002517,"['k', 'n']",0,KNXL,"['k', 'n']",False,295.27625260013156,"[0.22289510001428425, 0.5528901000507176]","[0.18288390012457967, 0.1475772000849247]",631606,001,2024-11-17_23h40.23.855,DelayedPartialReportMethod,2024.1.5,None,2024-11-17 23h40.28.502993 +0530,
39,0,39,0,295.27625260013156,,,,,,,,,295.26043949997984,295.27625260013156,295.77635450009257,296.276624500053,297.2774110001046,297.2615545000881,297.2615702999756,297.2774110001046,302.26766899996437,"['k', 'd']",1,KDUE,"['k', 'd']",False,,"[1.0132941000629216, 1.6001063000876456]","[0.18092680000700057, 0.19510129978880286]",631606,001,2024-11-17_23h40.23.855,DelayedPartialReportMethod,2024.1.5,None,2024-11-17 23h40.28.502993 +0530,
40,0,40,0,302.2830744001549,,,,,,,,,302.2685642000288,302.2830744001549,302.7837755000219,303.2677627999801,304.26841989997774,304.25261040008627,304.25262959999964,304.26841989997774,309.25823080004193,"['e', 'i']",0,EIYO,"['e', 'i']",False,309.27397950016893,"[1.1251557001378387, 1.4502974001225084]","[0.26782049983739853, 0.2093830998055637]",631606,001,2024-11-17_23h40.23.855,DelayedPartialReportMethod,2024.1.5,None,2024-11-17 23h40.28.502993 +0530,
41,0,41,0,309.27397950016893,,,,,,,,,309.2590519001242,309.27397950016893,309.77440160000697,310.27512839995325,311.2765019000508,311.2605026999954,311.26051839999855,311.2765019000508,316.2646383000538,"['c', 'f']",0,CFWJ,"['c', 'f']",False,,"[0.08130920003168285, 1.298981700092554]","[0.2863038000650704, 0.24057119991630316]",631606,001,2024-11-17_23h40.23.855,DelayedPartialReportMethod,2024.1.5,None,2024-11-17 23h40.28.502993 +0530,
42,0,42,0,316.2814112000633,,,,,,,,,316.26603060006164,316.2814112000633,316.7826392001007,317.26610819995403,318.26697080000304,318.251089700032,318.2511050000321,318.26697080000304,323.257554900134,"['w', 'b']",1,BWBM,"['w', 'b']",False,323.2734585001599,"[0.18212129990570247, 1.183253499912098]","[0.31087630009278655, 0.240749099990353]",631606,001,2024-11-17_23h40.23.855,DelayedPartialReportMethod,2024.1.5,None,2024-11-17 23h40.28.502993 +0530,
43,0,43,0,323.2734585001599,,,,,,,,,323.25838680006564,323.2734585001599,323.7737696999684,324.27440530015156,325.2749671000056,325.259847600013,325.2598638001364,325.2749671000056,330.2643166000489,"['b', 't']",1,BTMD,"['b', 't']",False,,"[0.38696679985150695, 0.6819857999216765]","[0.2501833999995142, 0.2409129999577999]",631606,001,2024-11-17_23h40.23.855,DelayedPartialReportMethod,2024.1.5,None,2024-11-17 23h40.28.502993 +0530,
44,0,44,0,330.28077520010993,,,,,,,,,330.26532330014743,330.28077520010993,330.78189380001277,331.2651951999869,332.26683940016665,332.25037889997475,332.25039450009353,332.26683940016665,337.25526630016975,"['l', 'y', 'm']",2,DSVB,"['l', 'y', 'm']",False,337.271778000053,"[0.18204729980789125, 0.9091185999568552, 1.659086599946022]","[0.24601230002008379, 0.21458139992319047, 0.20590880000963807]",631606,001,2024-11-17_23h40.23.855,DelayedPartialReportMethod,2024.1.5,None,2024-11-17 23h40.28.502993 +0530,
45,0,45,0,337.271778000053,,,,,,,,,337.2567215000745,337.271778000053,337.77270960016176,338.27305790013634,339.2737933001481,339.258449499961,339.2584651000798,339.2737933001481,344.26293490012176,"['s', 'e']",0,XEIM,"['s', 'e']",False,,"[0.20869569992646575, 0.6051318000536412]","[0.22623350005596876, 0.22419549990445375]",631606,001,2024-11-17_23h40.23.855,DelayedPartialReportMethod,2024.1.5,None,2024-11-17 23h40.28.502993 +0530,
46,0,46,0,344.279411500087,,,,,,,,,344.2639405000955,344.279411500087,344.77952080010436,345.26386289997026,346.26512400014326,346.2489096999634,346.24892559996806,346.26512400014326,351.2554139001295,['g'],0,XGOZ,['g'],False,351.27046869997866,[0.5319348000921309],[0.2748189000412822],631606,001,2024-11-17_23h40.23.855,DelayedPartialReportMethod,2024.1.5,None,2024-11-17 23h40.28.502993 +0530,
47,0,47,0,351.27046869997866,,,,,,,,,351.25623750011437,351.27046869997866,351.7710269000381,352.27173539996147,353.2732196999714,353.2568682001438,353.25688430015,353.2732196999714,358.2626611001324,"['r', 'g']",0,RGSR,"['r', 'g']",False,358.2782465000637,"[0.32845519995316863, 0.7266921000555158]","[0.25660550012253225, 0.2309117999393493]",631606,001,2024-11-17_23h40.23.855,DelayedPartialReportMethod,2024.1.5,None,2024-11-17 23h40.28.502993 +0530,
48,0,48,0,358.2782465000637,,,,,,,,,358.2634644000791,358.2782465000637,358.77853510016575,359.2625147001818,360.26406710012816,360.24767419998534,360.2476924001239,360.26406710012816,365.25284690014087,"['j', 'p', 'd']",0,PDMW,"['j', 'p', 'd']",False,365.2691890001297,"[0.2987554999999702, 0.8567790000233799, 1.234587699873373]","[0.18208629987202585, 0.23352999985218048, 0.23831390007399023]",631606,001,2024-11-17_23h40.23.855,DelayedPartialReportMethod,2024.1.5,None,2024-11-17 23h40.28.502993 +0530,
49,0,49,0,365.2691890001297,,,,,,,,,365.25370130012743,365.2691890001297,365.7698689000681,366.2704752001446,367.27205760008655,367.2555115001742,367.2555270001758,367.27205760008655,372.2609534000512,"['q', 'j']",0,QGQS,"['q', 'j']",False,372.276813399978,"[0.6718824999406934, 1.393758200109005]","[0.23407150013372302, 0.1999581998679787]",631606,001,2024-11-17_23h40.23.855,DelayedPartialReportMethod,2024.1.5,None,2024-11-17 23h40.28.502993 +0530,
50,0,50,0,372.276813399978,,,,,,,,,372.2620821001474,372.276813399978,372.778082099976,373.27811489999294,374.27930040005594,374.26339079998434,374.26340740011074,374.27930040005594,379.2683105999604,"['x', 'l']",0,XLHU,"['x', 'l']",False,,"[0.8540364999789745, 1.3028238997794688]","[0.24866459984332323, 0.2337452000938356]",631606,001,2024-11-17_23h40.23.855,DelayedPartialReportMethod,2024.1.5,None,2024-11-17 23h40.28.502993 +0530,
51,0,51,0,379.2847617000807,,,,,,,,,379.2691850999836,379.2847617000807,379.78542140009813,380.2691673000809,381.27039710013196,381.25459800008684,381.2546125999652,381.27039710013196,386.25996370008215,"['g', 'i']",2,GIVS,"['g', 'i']",False,386.27563090017065,"[0.44941550004296005, 0.81202910002321]","[0.252717399969697, 0.2004055001307279]",631606,001,2024-11-17_23h40.23.855,DelayedPartialReportMethod,2024.1.5,None,2024-11-17 23h40.28.502993 +0530,
52,0,52,0,386.27563090017065,,,,,,,,,386.26082990015857,386.27563090017065,386.77627490018494,387.2767205000855,388.2777591000777,388.26204670011066,388.2620637000073,388.2777591000777,393.2669570001308,"['a', 'm']",2,AMSM,"['a', 'm']",False,,"[0.26991649996489286, 0.5558648000005633]","[0.240478599909693, 0.19385370006784797]",631606,001,2024-11-17_23h40.23.855,DelayedPartialReportMethod,2024.1.5,None,2024-11-17 23h40.28.502993 +0530,
53,0,53,0,393.28326490009204,,,,,,,,,393.268301300006,393.28326490009204,393.78410930000246,394.26765180006623,395.26922530005686,395.25277400016785,395.25278870016336,395.26922530005686,400.25881010014564,"['t', 'c']",1,RCQD,"['t', 'c']",False,400.2745400001295,"[0.6498243000824004, 1.2999515000265092]","[0.2264992999844253, 0.24066670006141067]",631606,001,2024-11-17_23h40.23.855,DelayedPartialReportMethod,2024.1.5,None,2024-11-17 23h40.28.502993 +0530,
54,0,54,0,400.2745400001295,,,,,,,,,400.25966740003787,400.2745400001295,400.7748031001538,401.27667540009134,402.27671310002916,402.2608006000519,402.26082010008395,402.27671310002916,407.2654377000872,"['f', 'i']",1,FIOO,"['f', 'i']",False,,"[2.552148000104353, 2.8597774000372738]","[0.24041199986822903, 0.18039139988832176]",631606,001,2024-11-17_23h40.23.855,DelayedPartialReportMethod,2024.1.5,None,2024-11-17 23h40.28.502993 +0530,
55,0,55,0,407.2820321000181,,,,,,,,,407.26648960006423,407.2820321000181,407.7836841000244,408.26656150002964,409.2678459000308,409.2517785001546,409.25179340015166,409.2678459000308,414.2582337001804,['v'],1,KVSW,['v'],False,414.2731079000514,[0.7526489000301808],[0.2279744998086244],631606,001,2024-11-17_23h40.23.855,DelayedPartialReportMethod,2024.1.5,None,2024-11-17 23h40.28.502993 +0530,
56,0,56,0,414.2731079000514,,,,,,,,,414.25923219998367,414.2731079000514,414.7737641001586,415.27422210015357,416.2755073001608,416.25978279998526,416.259802600136,416.2755073001608,421.2647971000988,"['k', 'd']",2,HLMA,"['k', 'd']",False,,"[1.6543336999602616, 1.7079405998811126]","[0.22272439999505877, 0.25867040012963116]",631606,001,2024-11-17_23h40.23.855,DelayedPartialReportMethod,2024.1.5,None,2024-11-17 23h40.28.502993 +0530,
57,0,57,0,421.2814347001258,,,,,,,,,421.2656938000582,421.2814347001258,421.78151690005325,422.2654284001328,423.2668715000618,423.25063939997926,423.2506544999778,423.2668715000618,428.2564535001293,"['i', 'e', 'o', 'd']",2,IZRR,"['i', 'e', 'o', 'd']",False,428.27192019997165,"[0.7090819000732154, 0.9517841001506895, 1.1953088999725878, 4.037757199956104]","[0.2535772998817265, 0.2564192998688668, 0.2391115000937134, 0.21812990005128086]",631606,001,2024-11-17_23h40.23.855,DelayedPartialReportMethod,2024.1.5,None,2024-11-17 23h40.28.502993 +0530,
58,0,58,0,428.27192019997165,,,,,,,,,428.25766230002046,428.27192019997165,428.77259399998,429.2731195001397,430.2743317000568,430.25823360006325,430.25824740016833,430.2743317000568,435.2631542000454,"['e', 'j']",1,ENCH,"['e', 'j']",False,,"[0.9005118999630213, 1.4200460999272764]","[0.2502852000761777, 0.22154589998535812]",631606,001,2024-11-17_23h40.23.855,DelayedPartialReportMethod,2024.1.5,None,2024-11-17 23h40.28.502993 +0530,
59,0,59,0,435.27982820011675,,,,,,,,,435.2642437000759,435.27982820011675,435.78039850015193,436.264220100129,437.26522650010884,437.2494249001611,437.2494422001764,437.26522650010884,442.25516080018133,"['q', 'w', 'p']",0,WPXX,"['q', 'w', 'p']",False,442.2707770001143,"[0.09433350013568997, 1.3026319001801312, 2.159605400171131]","[0.43594019999727607, 0.3096043998375535, 0.2063898998312652]",631606,001,2024-11-17_23h40.23.855,DelayedPartialReportMethod,2024.1.5,None,2024-11-17 23h40.28.502993 +0530,
60,0,60,0,442.2707770001143,,,,,,,,,442.25647370005026,442.2707770001143,442.77143560000695,443.2720139999874,444.27369850012474,444.25727290008217,444.2572938001249,444.27369850012474,449.2627896000631,"['x', 'o']",2,UVVC,"['x', 'o']",False,449.2787784000393,"[1.1168042002245784, 2.509268900146708]","[0.2530139998998493, 0.1604529998730868]",631606,001,2024-11-17_23h40.23.855,DelayedPartialReportMethod,2024.1.5,None,2024-11-17 23h40.28.502993 +0530,
61,0,61,0,449.2787784000393,,,,,,,,,449.2638483000919,449.2787784000393,449.7793469000608,450.2630722001195,451.2639511001762,451.2479626000859,451.24798190011643,451.2639511001762,456.25329939997755,"['w', 'c']",0,WCKO,"['w', 'c']",False,456.2693739000242,"[0.0996870999224484, 1.8417774999979883]","[0.347208300139755, 0.26059480011463165]",631606,001,2024-11-17_23h40.23.855,DelayedPartialReportMethod,2024.1.5,None,2024-11-17 23h40.28.502993 +0530,
62,0,62,0,456.2693739000242,,,,,,,,,456.254522100091,456.2693739000242,456.7702638001647,457.270653600106,458.2718011001125,458.2559326000046,458.25595500017516,458.2718011001125,463.2615195000544,"['i', 'b']",0,IGER,"['i', 'b']",False,463.277418800164,"[0.3078384001273662, 0.7446657000109553]","[0.2616737999487668, 0.17761090002022684]",631606,001,2024-11-17_23h40.23.855,DelayedPartialReportMethod,2024.1.5,None,2024-11-17 23h40.28.502993 +0530,
63,0,63,0,463.277418800164,,,,,,,,,463.2626826001797,463.277418800164,463.77773410012014,464.2619136001449,465.26255870005116,465.24666720000096,465.24668100010604,465.26255870005116,470.25233689998277,"['r', 's']",0,RSPZ,"['r', 's']",False,470.2689129000064,"[0.14721620013006032, 1.14887520018965]","[0.24597540008835495, 0.25749189988709986]",631606,001,2024-11-17_23h40.23.855,DelayedPartialReportMethod,2024.1.5,None,2024-11-17 23h40.28.502993 +0530,
64,0,64,0,470.2689129000064,,,,,,,,,470.2531818000134,470.2689129000064,470.7687944001518,471.26940690004267,472.2710148000624,472.2551667999942,472.255182800116,472.2710148000624,477.26033359998837,"['h', 'm']",2,NMNR,"['h', 'm']",False,477.2758494000882,"[0.06771920016035438, 0.4175478999968618]","[0.18604990001767874, 0.21006230008788407]",631606,001,2024-11-17_23h40.23.855,DelayedPartialReportMethod,2024.1.5,None,2024-11-17 23h40.28.502993 +0530,
65,0,65,0,477.2758494000882,,,,,,,,,477.26113440003246,477.2758494000882,477.77635739999823,478.2772925000172,479.278384400066,479.26223250012845,479.2622563999612,479.278384400066,484.26749880006537,"['y', 'h']",1,YHKL,"['y', 'h']",False,,"[0.5763763999566436, 0.9755516999866813]","[0.21565579995512962, 0.16090049990452826]",631606,001,2024-11-17_23h40.23.855,DelayedPartialReportMethod,2024.1.5,None,2024-11-17 23h40.28.502993 +0530,
66,0,66,0,484.2838831001427,,,,,,,,,484.26839890005067,484.2838831001427,484.78451610007323,485.2683423999697,486.26934180012904,486.253530099988,486.25354450009763,486.26934180012904,491.2588355001062,"['q', 's']",1,QSFL,"['q', 's']",False,491.2746588999871,"[0.37681029993109405, 0.9234376999083906]","[0.30472150002606213, 0.2527515001129359]",631606,001,2024-11-17_23h40.23.855,DelayedPartialReportMethod,2024.1.5,None,2024-11-17 23h40.28.502993 +0530,
67,0,67,0,491.2746588999871,,,,,,,,,491.2597439000383,491.2746588999871,491.77541400003247,492.276045500068,493.27699799998663,493.26128170010634,493.2612982999999,493.27699799998663,498.2659583000932,"['i', 'k']",0,IKKF,"['i', 'k']",False,,"[1.436035200022161, 1.9297348000109196]","[0.18289069994352758, 0.1579003999941051]",631606,001,2024-11-17_23h40.23.855,DelayedPartialReportMethod,2024.1.5,None,2024-11-17 23h40.28.502993 +0530,
68,0,68,0,498.2821848001331,,,,,,,,,498.26776560000144,498.2821848001331,498.783063699957,499.2677768000867,500.2680560001172,500.2519953001756,500.2520096001681,500.2680560001172,505.2578197000548,"['d', 'i', 'k']",2,UIIX,"['d', 'i', 'k']",False,505.2738143000752,"[0.3370791000779718, 0.675401900196448, 4.8650652000214905]","[0.2875767000950873, 0.18787179980427027, None]",631606,001,2024-11-17_23h40.23.855,DelayedPartialReportMethod,2024.1.5,None,2024-11-17 23h40.28.502993 +0530,
69,0,69,0,505.2738143000752,,,,,,,,,505.2592968000099,505.2738143000752,505.77421690011397,506.2747457001824,507.2762325000949,507.25994720007293,507.2599629999604,507.2762325000949,512.264718499966,"['i', 'v']",2,IFIT,"['i', 'v']",False,,"[0.3379452000372112, 0.6147991002071649]","[0.19813080015592277, 0.20251209987327456]",631606,001,2024-11-17_23h40.23.855,DelayedPartialReportMethod,2024.1.5,None,2024-11-17 23h40.28.502993 +0530,
70,0,70,0,512.2814305999782,,,,,,,,,512.2656459000427,512.2814305999782,512.7815356000792,513.2656386001036,514.2666905000806,514.2506658001803,514.2506838999689,514.2666905000806,519.2565117001068,"['f', 'r']",2,FBNS,"['f', 'r']",False,519.2720973000396,"[0.6977270999923348, 1.01354829990305]","[0.199611600022763, 0.24234040011651814]",631606,001,2024-11-17_23h40.23.855,DelayedPartialReportMethod,2024.1.5,None,2024-11-17 23h40.28.502993 +0530,
71,0,71,0,519.2720973000396,,,,,,,,,519.2573288001586,519.2720973000396,519.7733390000649,520.273433299968,521.2747075001244,521.2590954999905,521.2591109999921,521.2747075001244,526.2636518001091,"['q', 'x']",1,QXJE,"['q', 'x']",False,,"[1.5299432999454439, 2.1044240000192076]","[0.2404527000617236, 0.23794259992428124]",631606,001,2024-11-17_23h40.23.855,DelayedPartialReportMethod,2024.1.5,None,2024-11-17 23h40.28.502993 +0530,
72,0,72,0,526.2799423001707,,,,,,,,,526.2645640999544,526.2799423001707,526.7816682001576,527.2646380001679,528.2657139999792,528.249708800111,528.2497301001567,528.2657139999792,533.2553205001168,"['y', 'j']",1,YJWD,"['y', 'j']",False,533.2712048999965,"[0.3643759998958558, 0.8358864998444915]","[0.19069329998455942, 0.18415090022608638]",631606,001,2024-11-17_23h40.23.855,DelayedPartialReportMethod,2024.1.5,None,2024-11-17 23h40.28.502993 +0530,
73,0,73,0,533.2712048999965,,,,,,,,,533.2562575000338,533.2712048999965,533.7716954001226,534.2725369001273,535.273499700008,535.2574472001288,535.2574651001487,535.273499700008,540.2631322001107,"['w', 'g']",1,WGAN,"['w', 'g']",False,540.278778700158,"[0.6599229001440108, 1.0728377001360059]","[0.2493970999494195, 0.2927131000906229]",631606,001,2024-11-17_23h40.23.855,DelayedPartialReportMethod,2024.1.5,None,2024-11-17 23h40.28.502993 +0530,
74,0,74,0,540.278778700158,,,,,,,,,540.2642397000454,540.278778700158,540.7795025000814,541.2634400001261,542.264446400106,542.2483685000334,542.2484401001129,542.264446400106,547.253853400005,"['o', 'k']",1,OKRA,"['o', 'k']",False,547.2698580001015,"[0.7245495999231935, 1.2132733999751508]","[0.29910359997302294, 0.11319110007025301]",631606,001,2024-11-17_23h40.23.855,DelayedPartialReportMethod,2024.1.5,None,2024-11-17 23h40.28.502993 +0530,
75,0,75,0,547.2698580001015,,,,,,,,,547.2550013000146,547.2698580001015,547.7707400000654,548.2708483999595,549.2720884000883,549.256269400008,549.2562842001207,549.2720884000883,554.2615366000682,"['a', 'l']",0,ALOM,"['a', 'l']",False,554.2776512999553,"[0.3600722001865506, 0.6369996999856085]","[0.22941339993849397, 0.24480270012281835]",631606,001,2024-11-17_23h40.23.855,DelayedPartialReportMethod,2024.1.5,None,2024-11-17 23h40.28.502993 +0530,
76,0,76,0,554.2776512999553,,,,,,,,,554.2623536000028,554.2776512999553,554.7784702000208,555.2618846001569,556.2631278999615,556.247403900139,556.2474203000311,556.2631278999615,561.2528805001639,"['v', 'e']",2,VEVG,"['v', 'e']",False,561.2686529001221,"[0.24275830015540123, 0.750110600143671]","[0.2600692000705749, 0.20833329996094108]",631606,001,2024-11-17_23h40.23.855,DelayedPartialReportMethod,2024.1.5,None,2024-11-17 23h40.28.502993 +0530,
77,0,77,0,561.2686529001221,,,,,,,,,561.2539610001259,561.2686529001221,561.7692526001483,562.2702763001435,563.2741574000102,563.2556414001156,563.2556576000061,563.2741574000102,568.2603567000479,"['r', 'r']",0,RRVN,"['r', 'r']",False,568.276276800083,"[0.13424449996091425, 0.3946505000349134]","[0.19713380001485348, 0.20177249982953072]",631606,001,2024-11-17_23h40.23.855,DelayedPartialReportMethod,2024.1.5,None,2024-11-17 23h40.28.502993 +0530,
78,0,78,0,568.276276800083,,,,,,,,,568.2614146000706,568.276276800083,568.7769695001189,569.2775197001174,570.2785364000592,570.2623811999802,570.2623972999863,570.2785364000592,575.2677621000912,"['f', 'q']",2,FQAH,"['f', 'q']",False,,"[1.0365450999233872, 1.5102172000333667]","[0.2794365999288857, 0.249004399869591]",631606,001,2024-11-17_23h40.23.855,DelayedPartialReportMethod,2024.1.5,None,2024-11-17 23h40.28.502993 +0530,
79,0,79,0,575.2841386001091,,,,,,,,,575.2689281001221,575.2841386001091,575.7845764001831,576.268651700113,577.2696324000135,577.253524400061,577.2535455001052,577.2696324000135,582.2596210001502,"['i', 'r']",1,YLDA,"['i', 'r']",False,582.2747542001307,"[0.8192694000899792, 1.0692815000656992]","[0.23416639980860054, 0.2282968999352306]",631606,001,2024-11-17_23h40.23.855,DelayedPartialReportMethod,2024.1.5,None,2024-11-17 23h40.28.502993 +0530,
80,0,80,0,582.2747542001307,,,,,,,,,582.2604833000805,582.2747542001307,582.775558500085,583.2761854999699,584.2773869000375,584.2612521001138,584.2612709000241,584.2773869000375,589.2664844000246,"['x', 'q']",1,XQBC,"['x', 'q']",False,,"[2.3126394997816533, 3.0252938999328762]","[0.23741000005975366, 0.26603799988515675]",631606,001,2024-11-17_23h40.23.855,DelayedPartialReportMethod,2024.1.5,None,2024-11-17 23h40.28.502993 +0530,
81,0,81,0,589.2828661999665,,,,,,,,,589.2673808999825,589.2828661999665,589.7833863999695,590.2671610000543,591.2680808000732,591.2524723000824,591.2524884000886,591.2680808000732,596.2577329000924,"['v', 'f']",1,RBTX,"['v', 'f']",False,596.2744035001379,"[1.4778885000851005, 1.8579534001182765]","[0.24763350002467632, 0.2504052999429405]",631606,001,2024-11-17_23h40.23.855,DelayedPartialReportMethod,2024.1.5,None,2024-11-17 23h40.28.502993 +0530,
82,0,82,0,596.2744035001379,,,,,,,,,596.2585861999542,596.2744035001379,596.774168800097,597.2750583000015,598.2759428999852,598.2601749000605,598.2602027000394,598.2759428999852,603.2650033000391,"['i', 'e']",2,IEKC,"['i', 'e']",False,,"[0.5731703999917954, 1.2004615000914782]","[0.24050360010005534, 0.23661680007353425]",631606,001,2024-11-17_23h40.23.855,DelayedPartialReportMethod,2024.1.5,None,2024-11-17 23h40.28.502993 +0530,
83,0,83,0,603.2814257000573,,,,,,,,,603.2661095000803,603.2814257000573,603.7819607001729,604.266134200152,605.2669419001322,605.2519119000062,605.2519269001205,605.2669419001322,610.2567930000369,"['i', 'l']",0,ILYD,"['i', 'l']",False,610.2725323999766,"[0.21044589998200536, 0.7552819999400526]","[0.1838349001482129, 0.20839260006323457]",631606,001,2024-11-17_23h40.23.855,DelayedPartialReportMethod,2024.1.5,None,2024-11-17 23h40.28.502993 +0530,
84,0,84,0,610.2725323999766,,,,,,,,,610.2576707999688,610.2725323999766,610.7731096001808,611.2735892001074,612.2748100000899,612.2587769001257,612.258795700036,612.2748100000899,617.2633542001713,"['r', 'n']",0,RNZF,"['r', 'n']",False,,"[0.6302193000447005, 0.8910755000542849]","[0.25604290002956986, 0.18254909990355372]",631606,001,2024-11-17_23h40.23.855,DelayedPartialReportMethod,2024.1.5,None,2024-11-17 23h40.28.502993 +0530,
85,0,85,0,617.2806043000892,,,,,,,,,617.2643347000703,617.2806043000892,617.7809833001811,618.2649324000813,619.2664763999637,619.2500577000901,619.2500744001009,619.2664763999637,624.2554044001736,"['m', 'f', 'g']",1,MGSU,"['m', 'f', 'g']",False,624.2719225999899,"[0.4393537000287324, 0.8392000000458211, 1.167775000212714]","[0.20376259996555746, 0.08825140004046261, 0.22917529987171292]",631606,001,2024-11-17_23h40.23.855,DelayedPartialReportMethod,2024.1.5,None,2024-11-17 23h40.28.502993 +0530,
86,0,86,0,624.2719225999899,,,,,,,,,624.2566232001409,624.2719225999899,624.7719004000537,625.2726559001021,626.2736176999751,626.2574689001776,626.2574875999708,626.2736176999751,631.2634322000667,"['r', 'y']",1,RYBY,"['r', 'y']",False,631.279266100144,"[None, 0.31826009997166693]","[None, 0.15377139998599887]",631606,001,2024-11-17_23h40.23.855,DelayedPartialReportMethod,2024.1.5,None,2024-11-17 23h40.28.502993 +0530,
87,0,87,0,631.279266100144,,,,,,,,,631.2642521001399,631.279266100144,631.7797332999762,632.2634730001446,633.265055200085,633.2493666000664,633.2493847000878,633.265055200085,638.2545233999845,"['e', 'q']",2,EVCH,"['e', 'q']",False,638.2700293001253,"[0.7346324000973254, 1.437126399949193]","[0.2930733999237418, 0.26011959998868406]",631606,001,2024-11-17_23h40.23.855,DelayedPartialReportMethod,2024.1.5,None,2024-11-17 23h40.28.502993 +0530,
88,0,88,0,638.2700293001253,,,,,,,,,638.255704900017,638.2700293001253,638.7705751000904,639.2711522001773,640.2724489001557,640.2563659001607,640.2563818001654,640.2724489001557,645.2620100001805,"['h', 'z', 'd']",0,HZGQ,"['h', 'z', 'd']",False,645.2779503001366,"[0.43082170002162457, 0.9575263999868184, 3.054853599984199]","[0.21523029985837638, 0.34032019996084273, 0.20071569993160665]",631606,001,2024-11-17_23h40.23.855,DelayedPartialReportMethod,2024.1.5,None,2024-11-17 23h40.28.502993 +0530,
89,0,89,0,645.2779503001366,,,,,,,,,645.2630080000963,645.2779503001366,645.7786499999929,646.2623418001458,647.2634690999985,647.2474430999719,647.2474579999689,647.2634690999985,652.2528216000646,"['v', 'j']",1,VJCO,"['v', 'j']",False,652.2689769000281,"[0.7128926999866962, 0.909318899968639]","[0.22500890004448593, 0.17686649993993342]",631606,001,2024-11-17_23h40.23.855,DelayedPartialReportMethod,2024.1.5,None,2024-11-17 23h40.28.502993 +0530,
90,0,90,0,652.2689769000281,,,,,,,,,652.2536429001484,652.2689769000281,652.769766200101,653.2701310999691,654.2716263001785,654.2554043000564,654.2554228000809,654.2716263001785,659.2609026001301,"['m', 'm']",2,MMCP,"['m', 'm']",False,659.2766351001337,"[0.18835249985568225, 0.4258144998457283]","[0.164670699974522, 0.1874339000787586]",631606,001,2024-11-17_23h40.23.855,DelayedPartialReportMethod,2024.1.5,None,2024-11-17 23h40.28.502993 +0530,
91,0,91,0,659.2766351001337,,,,,,,,,659.2617065000813,659.2766351001337,659.7772723000962,660.2778205000795,661.2789869001135,661.263155200053,661.2631706001703,661.2789869001135,666.2681897999719,"['g', 'm']",0,GMEL,"['g', 'm']",False,,"[0.16912720003165305, 0.5095824999734759]","[0.2727473999839276, 0.21653320011682808]",631606,001,2024-11-17_23h40.23.855,DelayedPartialReportMethod,2024.1.5,None,2024-11-17 23h40.28.502993 +0530,
92,0,92,0,666.2845598000567,,,,,,,,,666.2691222999711,666.2845598000567,666.7852871001232,667.2687443001196,668.2701195001137,668.2543029000517,668.2543174000457,668.2701195001137,673.2598378001712,"['z', 'z']",0,ZZPI,"['z', 'z']",False,673.2755893999711,"[1.043784199981019, 1.3668512001167983]","[0.20908330008387566, 0.2121268999762833]",631606,001,2024-11-17_23h40.23.855,DelayedPartialReportMethod,2024.1.5,None,2024-11-17 23h40.28.502993 +0530,
93,0,93,0,673.2755893999711,,,,,,,,,673.260691100033,673.2755893999711,673.7760308999568,674.2768039000221,675.2776353000663,675.2616585001815,675.2616818000097,675.2776353000663,680.2668739999644,"['i', 'j']",1,IJCA,"['i', 'j']",False,,"[None, 0.35991139989346266]","[None, 0.1491274000145495]",631606,001,2024-11-17_23h40.23.855,DelayedPartialReportMethod,2024.1.5,None,2024-11-17 23h40.28.502993 +0530,
94,0,94,0,680.2830009001773,,,,,,,,,680.2678042000625,680.2830009001773,680.7837404001039,681.2676614001393,682.2685012000147,682.2529637999833,682.2529788000975,682.2685012000147,687.2583848000504,"['x', 'i']",2,XIZR,"['x', 'i']",False,687.2742374001537,"[0.3931315999943763, 0.8510939998086542]","[0.25360779999755323, 0.17546860012225807]",631606,001,2024-11-17_23h40.23.855,DelayedPartialReportMethod,2024.1.5,None,2024-11-17 23h40.28.502993 +0530,
95,0,95,0,687.2742374001537,,,,,,,,,687.2592430000659,687.2742374001537,687.7747141001746,688.275293200044,689.276566100074,689.2604384999722,689.2604576000012,689.276566100074,694.2653149999678,"['u', 'l']",1,UZDY,"['u', 'l']",False,,"[1.3783308998681605, 1.6584804998710752]","[0.2020197999663651, 0.2580653000622988]",631606,001,2024-11-17_23h40.23.855,DelayedPartialReportMethod,2024.1.5,None,2024-11-17 23h40.28.502993 +0530,
96,0,96,0,694.2819207999855,,,,,,,,,694.2663641001564,694.2819207999855,694.7823848000262,695.2661737001035,696.26796810003,696.2512900000438,696.25130610005,696.26796810003,701.2575225001201,"['x', 'r']",0,URBT,"['x', 'r']",False,701.2729289999697,"[0.6916163999121636, 1.236417599953711]","[0.2538986001163721, 0.2268578999210149]",631606,001,2024-11-17_23h40.23.855,DelayedPartialReportMethod,2024.1.5,None,2024-11-17 23h40.28.502993 +0530,
97,0,97,0,701.2729289999697,,,,,,,,,701.2585134999827,701.2729289999697,701.7733907999936,702.2739737001248,703.2755846001673,703.2592735001817,703.2592899000738,703.2755846001673,708.26462120004,"['t', 'i']",2,SNYE,"['t', 'i']",False,,"[1.1776666000951082, 1.4609947002027184]","[0.24370680004358292, 0.18465909990482032]",631606,001,2024-11-17_23h40.23.855,DelayedPartialReportMethod,2024.1.5,None,2024-11-17 23h40.28.502993 +0530,
98,0,98,0,708.2811669001821,,,,,,,,,708.2655880001839,708.2811669001821,708.7812678001355,709.2651752000675,710.2667557001114,710.2503625000827,710.2503768999595,710.2667557001114,715.2556821000762,"['v', 'z', 'x']",0,VPQD,"['v', 'z', 'x']",False,715.2716443000827,"[0.4602836000267416, 1.6328558998648077, 2.21175009990111]","[0.25005769985727966, 0.28763519995845854, 0.2584357999730855]",631606,001,2024-11-17_23h40.23.855,DelayedPartialReportMethod,2024.1.5,None,2024-11-17 23h40.28.502993 +0530,
99,0,99,0,715.2716443000827,,,,,,,,,715.2565747001208,715.2716443000827,715.7726990999654,716.2728593000211,717.2744994000532,717.2584502999671,717.2584712000098,717.2744994000532,722.262919300003,"['d', 's', 'k']",2,BCVK,"['d', 's', 'k']",False,,"[0.7903429002035409, 0.8132793002296239, 0.8315196000039577]","[0.3470747999381274, 0.2349819999653846, 0.283661600202322]",631606,001,2024-11-17_23h40.23.855,DelayedPartialReportMethod,2024.1.5,None,2024-11-17 23h40.28.502993 +0530,
