trials.thisRepN,trials.thisTrialN,trials.thisN,trials.thisIndex,thisRow.t,notes,introduction.started,text.started,key_resp.started,introduction.stopped,key_resp.keys,key_resp.rt,key_resp.duration,trial.started,letter_grid.started,letter_grid.stopped,row_cue.started,trial.stopped,response_routine.started,response.started,response_routine.stopped,response.keys,response.rt,response.duration,Cued Row,Correct Row,Participant Response,Is Correct,row_cue.stopped,response.stopped,participant,session,date,expName,psychopyVersion,frameRate,expStart,
,,,,,,0.003414799924939871,0.02168800006620586,0.02168800006620586,13.520887600025162,space,13.343211200088263,None,,,,,,,,,,,,,,,,,,758368,001,2024-11-17_12h00.19.545,DelayedPartialReportMethod,2024.1.5,None,2024-11-17 12h00.36.912350 +0530,
0,0,0,0,13.549409700091928,,,,,,,,,13.523851400008425,13.549409700091928,14.057186200050637,14.537412700010464,15.58496979996562,15.584996599936858,15.604734800057486,20.527694900054485,['b'],[1.2982397999148816],[0.08858409989625216],0,BRKI,['b'],False,,,758368,001,2024-11-17_12h00.19.545,DelayedPartialReportMethod,2024.1.5,None,2024-11-17 12h00.36.912350 +0530,
1,0,1,0,20.549572099931538,,,,,,,,,20.53145379992202,20.549572099931538,21.061187300132588,21.52729670004919,22.51421370008029,22.514232400106266,22.528833199990913,27.521917199948803,['z'],[1.340030899969861],[0.11441979999653995],2,MGHZ,['z'],False,22.528833199990913,,758368,001,2024-11-17_12h00.19.545,DelayedPartialReportMethod,2024.1.5,None,2024-11-17 12h00.36.912350 +0530,
2,0,2,0,27.540223099989817,,,,,,,,,27.523281400091946,27.540223099989817,28.051543300040066,28.534718099981546,29.520880399970338,29.520922899944708,29.53654620004818,34.52696790010668,['n'],[0.9287084001116455],[0.07547249994240701],0,ZVVT,['n'],False,29.53654620004818,,758368,001,2024-11-17_12h00.19.545,DelayedPartialReportMethod,2024.1.5,None,2024-11-17 12h00.36.912350 +0530,
3,0,3,0,34.54493850003928,,,,,,,,,34.5286475000903,34.54493850003928,35.04329170007259,35.527588800061494,36.513188699958846,36.51320639997721,36.52796579990536,41.519261500099674,['x'],[0.6414774998556823],[0.10594690009020269],2,WVXJ,['x'],False,36.52796579990536,41.53965139994398,758368,001,2024-11-17_12h00.19.545,DelayedPartialReportMethod,2024.1.5,None,2024-11-17 12h00.36.912350 +0530,
4,0,4,0,41.53965139994398,,,,,,,,,41.52088010008447,41.53965139994398,42.05042660003528,42.53474200004712,43.52002880000509,43.52004859992303,43.536856200080365,48.5265822999645,['r'],[1.0026225000619888],[0.11152569996193051],0,BFGQ,['r'],False,43.536856200080365,,758368,001,2024-11-17_12h00.19.545,DelayedPartialReportMethod,2024.1.5,None,2024-11-17 12h00.36.912350 +0530,
5,0,5,0,48.541341400006786,,,,,,,,,48.52856740006246,48.541341400006786,49.057999399956316,49.524502200074494,50.51226280000992,50.51228090003133,50.52849830011837,55.518234099959955,['u'],[0.8202506999950856],[0.08302619983442128],0,UNNJ,['u'],False,50.52849830011837,55.536286500049755,758368,001,2024-11-17_12h00.19.545,DelayedPartialReportMethod,2024.1.5,None,2024-11-17 12h00.36.912350 +0530,
6,0,6,0,55.536286500049755,,,,,,,,,55.51999910012819,55.536286500049755,56.05144300009124,56.53253530012444,57.519343399908394,57.51935960003175,57.53480900009163,62.52374200010672,"['t', 'r']","[1.145783199928701, 1.3706963998265564]","[0.0827269998844713, 0.07298359996639192]",0,TIAN,"['t', 'r']",False,57.53480900009163,,758368,001,2024-11-17_12h00.19.545,DelayedPartialReportMethod,2024.1.5,None,2024-11-17 12h00.36.912350 +0530,
7,0,7,0,62.54144629999064,,,,,,,,,62.52568789990619,62.54144629999064,63.05787439993583,63.523515900131315,64.51387510006316,64.51390099991113,64.52667349996045,69.51756820012815,"['w', 'm']","[1.5217311000451446, 2.194706200156361]","[0.13171890005469322, 0.08248659991659224]",0,WMLW,"['w', 'm']",False,64.52667349996045,69.53138720011339,758368,001,2024-11-17_12h00.19.545,DelayedPartialReportMethod,2024.1.5,None,2024-11-17 12h00.36.912350 +0530,
8,0,8,0,69.53138720011339,,,,,,,,,69.51936009991914,69.53138720011339,70.03314559999853,70.53314780001529,71.51801909995265,71.51805710000917,71.53438200009987,76.52371480013244,['w'],[0.6451900000683963],[0.10597959998995066],0,HBBQ,['w'],False,71.53438200009987,,758368,001,2024-11-17_12h00.19.545,DelayedPartialReportMethod,2024.1.5,None,2024-11-17 12h00.36.912350 +0530,
9,0,9,0,76.54150200006552,,,,,,,,,76.52545720012859,76.54150200006552,77.05674770008773,77.52390019991435,78.5097324999515,78.50975130009465,78.5246657000389,83.51525690010749,['e'],[0.773871700046584],[0.09534600004553795],0,AELQ,['e'],False,78.5246657000389,83.53301430004649,758368,001,2024-11-17_12h00.19.545,DelayedPartialReportMethod,2024.1.5,None,2024-11-17 12h00.36.912350 +0530,
10,0,10,0,83.53301430004649,,,,,,,,,83.5167078000959,83.53301430004649,84.04893709998578,84.53170739999041,85.51628080010414,85.5163074999582,85.5352829999756,90.52157400012948,['o'],[0.6365779000334442],[0.0865253999363631],1,POSA,['o'],False,85.5352829999756,90.53937470004894,758368,001,2024-11-17_12h00.19.545,DelayedPartialReportMethod,2024.1.5,None,2024-11-17 12h00.36.912350 +0530,
11,0,11,0,90.53937470004894,,,,,,,,,90.52443050011061,90.53937470004894,91.05566899990663,91.52237899997272,92.51046140003018,92.51049540005624,92.5233885999769,97.51761740003712,['x'],[0.9736601999029517],[0.07633979991078377],2,UXEZ,['x'],False,92.5233885999769,97.53232520003803,758368,001,2024-11-17_12h00.19.545,DelayedPartialReportMethod,2024.1.5,None,2024-11-17 12h00.36.912350 +0530,
12,0,12,0,97.53232520003803,,,,,,,,,97.51929410011508,97.53232520003803,98.0465713001322,98.530342400074,99.51437320001423,99.51439979998395,99.53312789998017,104.51936120004393,['j'],[0.9016529999207705],[0.08602909999899566],2,JITY,['j'],False,99.53312789998017,104.54063519998454,758368,001,2024-11-17_12h00.19.545,DelayedPartialReportMethod,2024.1.5,None,2024-11-17 12h00.36.912350 +0530,
13,0,13,0,104.54063519998454,,,,,,,,,104.52029670006596,104.54063519998454,105.05549790011719,105.52118919999339,106.50874540000223,106.50879419990815,106.52133379993029,111.51194090000354,['r'],[2.311128699919209],[0.10917220008559525],0,GSKX,['r'],False,106.52133379993029,111.527878300054,758368,001,2024-11-17_12h00.19.545,DelayedPartialReportMethod,2024.1.5,None,2024-11-17 12h00.36.912350 +0530,
14,0,14,0,111.527878300054,,,,,,,,,111.51398689998314,111.527878300054,112.0301226999145,112.52898130007088,113.51689129997976,113.5169158000499,113.52954180003144,118.51986490003765,['s'],[0.4797795000486076],[0.1089590999763459],1,APIZ,['s'],False,113.52954180003144,118.53483329992741,758368,001,2024-11-17_12h00.19.545,DelayedPartialReportMethod,2024.1.5,None,2024-11-17 12h00.36.912350 +0530,
15,0,15,0,118.53483329992741,,,,,,,,,118.52143199997954,118.53483329992741,119.03530360013247,119.52257680008188,120.52197060012259,120.52199929999188,120.54202149994671,125.52888459991664,['m'],[1.0363681998569518],[0.059690500143915415],0,KOXB,['m'],False,,,758368,001,2024-11-17_12h00.19.545,DelayedPartialReportMethod,2024.1.5,None,2024-11-17 12h00.36.912350 +0530,
16,0,16,0,125.54227060009725,,,,,,,,,125.53112719999626,125.54227060009725,126.0444827999454,126.52900060010143,127.53176650009118,127.53178710001521,127.54477069992572,132.53370340005495,"['e', 'u']","[1.8582083999644965, 2.1432427000254393]","[0.10592000000178814, 0.08788320003077388]",2,PMBB,"['e', 'u']",False,,,758368,001,2024-11-17_12h00.19.545,DelayedPartialReportMethod,2024.1.5,None,2024-11-17 12h00.36.912350 +0530,
17,0,17,0,132.55132229998708,,,,,,,,,132.53576639993116,132.55132229998708,133.05220049992204,133.535184700042,134.52164419996552,134.5216699000448,134.54007550003007,139.5263827999588,['r'],[0.6953664000611752],[0.08571749995462596],0,RHSM,['r'],False,134.54007550003007,,758368,001,2024-11-17_12h00.19.545,DelayedPartialReportMethod,2024.1.5,None,2024-11-17 12h00.36.912350 +0530,
18,0,18,0,139.5412516000215,,,,,,,,,139.52981159999035,139.5412516000215,140.04183600004762,140.52763350005262,141.52990690013394,141.52992970007472,141.54323660000227,146.53445579996333,['j'],[0.573763299966231],[0.09124560002237558],2,JCIK,['j'],False,,,758368,001,2024-11-17_12h00.19.545,DelayedPartialReportMethod,2024.1.5,None,2024-11-17 12h00.36.912350 +0530,
19,0,19,0,146.54881120007485,,,,,,,,,146.53682669997215,146.54881120007485,147.0514678999316,147.53479159995914,148.5186789999716,148.5187023000326,148.5381901001092,153.52297890000045,['v'],[1.3370864000171423],[0.12166729988530278],0,PNQO,['v'],False,148.5381901001092,,758368,001,2024-11-17_12h00.19.545,DelayedPartialReportMethod,2024.1.5,None,2024-11-17 12h00.36.912350 +0530,
20,0,20,0,153.54095580009744,,,,,,,,,153.52452980005182,153.54095580009744,154.04018340003677,154.52600120007992,155.5100422000978,155.51006620004773,155.5271831001155,160.51566440006718,"['q', 't']","[1.4318538000807166, 1.7095115999691188]","[0.09226339985616505, 0.06631010002456605]",2,OTNH,"['q', 't']",False,155.5271831001155,160.5323892000597,758368,001,2024-11-17_12h00.19.545,DelayedPartialReportMethod,2024.1.5,None,2024-11-17 12h00.36.912350 +0530,
21,0,21,0,160.5323892000597,,,,,,,,,160.51680510002188,160.5323892000597,161.05186180002056,161.53482370008714,162.53597970004193,162.53602020000108,162.54907059995458,167.52274699998088,"['v', 'w']","[1.3027427000924945, 1.8549311999231577]","[0.08127859979867935, 0.11099090008065104]",2,VWBR,"['v', 'w']",False,,,758368,001,2024-11-17_12h00.19.545,DelayedPartialReportMethod,2024.1.5,None,2024-11-17 12h00.36.912350 +0530,
22,0,22,0,167.54026759997942,,,,,,,,,167.52417250000872,167.54026759997942,168.03979589999653,168.5262605000753,169.526317599928,169.52634100010619,169.54214109992608,174.53124210005626,['r'],[1.2060906998813152],[0.0798621999565512],2,ARGN,['r'],False,,,758368,001,2024-11-17_12h00.19.545,DelayedPartialReportMethod,2024.1.5,None,2024-11-17 12h00.36.912350 +0530,
23,0,23,0,174.5486262999475,,,,,,,,,174.53277639998123,174.5486262999475,175.06272909999825,175.53120570001192,176.5211326999124,176.52115779998712,176.53335899999365,181.5214430000633,['z'],[0.7222322998568416],[0.11552829993888736],1,ZULB,['z'],False,176.53335899999365,181.53926250012591,758368,001,2024-11-17_12h00.19.545,DelayedPartialReportMethod,2024.1.5,None,2024-11-17 12h00.36.912350 +0530,
24,0,24,0,181.53926250012591,,,,,,,,,181.52317239996046,181.53926250012591,182.0372774999123,182.52428600005805,183.52317219995894,183.5232071999926,183.54025180009194,188.52965199993923,['m'],[0.49060999997891486],[0.08275529998354614],2,NMJD,['m'],False,,,758368,001,2024-11-17_12h00.19.545,DelayedPartialReportMethod,2024.1.5,None,2024-11-17 12h00.36.912350 +0530,
25,0,25,0,188.54657969996333,,,,,,,,,188.5322350000497,188.54657969996333,189.06260649999604,189.53103539999574,190.53073220001534,190.530758399982,190.54773640003987,195.52195110009052,['z'],[1.372347000055015],[0.08302909997291863],0,XWOI,['z'],False,,,758368,001,2024-11-17_12h00.19.545,DelayedPartialReportMethod,2024.1.5,None,2024-11-17 12h00.36.912350 +0530,
26,0,26,0,195.53826420009136,,,,,,,,,195.52299500000663,195.53826420009136,196.03602849994786,196.5229970999062,197.52183320000768,197.5218563999515,197.5385938999243,202.52803110005334,['f'],[0.7711982000619173],[0.11943419999442995],1,JZJF,['f'],False,,,758368,001,2024-11-17_12h00.19.545,DelayedPartialReportMethod,2024.1.5,None,2024-11-17 12h00.36.912350 +0530,
27,0,27,0,202.54506310005672,,,,,,,,,202.52913579996675,202.54506310005672,203.0602800999768,203.52945069991983,204.5151011000853,204.5151249000337,204.52922830008902,209.51920250011608,['q'],[1.2895573999267071],[0.10967619996517897],0,QNAI,['q'],False,204.52922830008902,209.53624260006472,758368,001,2024-11-17_12h00.19.545,DelayedPartialReportMethod,2024.1.5,None,2024-11-17 12h00.36.912350 +0530,
28,0,28,0,209.53624260006472,,,,,,,,,209.52012409991585,209.53624260006472,210.0347303999588,210.52141569997184,211.50457550003193,211.50458780000918,211.5208988999948,216.5139560000971,['e'],[0.5626094001345336],[0.08548610005527735],2,ECKV,['e'],False,211.5208988999948,216.5290771999862,758368,001,2024-11-17_12h00.19.545,DelayedPartialReportMethod,2024.1.5,None,2024-11-17 12h00.36.912350 +0530,
29,0,29,0,216.5290771999862,,,,,,,,,216.51561579992995,216.5290771999862,217.04382829996757,217.526190900011,218.51517540006898,218.51520209992304,218.52812019991688,223.51923860004172,None,,,0,JZPJ,None,False,218.52812019991688,223.53552150004543,758368,001,2024-11-17_12h00.19.545,DelayedPartialReportMethod,2024.1.5,None,2024-11-17 12h00.36.912350 +0530,
30,0,30,0,223.53552150004543,,,,,,,,,223.51994180004112,223.53552150004543,224.0527663999237,224.53540960000828,225.52233770000748,225.52236180007458,225.53706609993242,230.52653350005858,['d'],[1.2119722000788897],[0.0951910000294447],1,DTCP,['d'],False,225.53706609993242,,758368,001,2024-11-17_12h00.19.545,DelayedPartialReportMethod,2024.1.5,None,2024-11-17 12h00.36.912350 +0530,
31,0,31,0,230.54079680005088,,,,,,,,,230.5281356999185,230.54079680005088,231.0413498999551,231.52969880006276,232.51345760002732,232.51350430003367,232.52843679999933,237.51731520006433,['u'],[0.9709326000884175],[0.10881610005162656],1,UORU,['u'],False,232.52843679999933,237.53436799999326,758368,001,2024-11-17_12h00.19.545,DelayedPartialReportMethod,2024.1.5,None,2024-11-17 12h00.36.912350 +0530,
32,0,32,0,237.53436799999326,,,,,,,,,237.5191502000671,237.53436799999326,238.0505858999677,238.53440060000867,239.5183409000747,239.5183608001098,239.53689499991015,244.52558850008063,['q'],[1.2212777000386268],[0.14543939987197518],1,QMNR,['q'],False,239.53689499991015,,758368,001,2024-11-17_12h00.19.545,DelayedPartialReportMethod,2024.1.5,None,2024-11-17 12h00.36.912350 +0530,
33,0,33,0,244.54115179996006,,,,,,,,,244.52770380000584,244.54115179996006,245.0420917000156,245.52465320006013,246.51166720013134,246.51168290013447,246.52687850012444,251.51738870004192,['x'],[0.707819800125435],[0.13192189997062087],2,BLUC,['x'],False,246.52687850012444,251.5338818000164,758368,001,2024-11-17_12h00.19.545,DelayedPartialReportMethod,2024.1.5,None,2024-11-17 12h00.36.912350 +0530,
34,0,34,0,251.5338818000164,,,,,,,,,251.51934530003928,251.5338818000164,252.049344799947,252.53589970013127,253.5345697000157,253.5346153001301,253.54959900001995,258.5223316999618,"['b', 'd']","[0.2612699999008328, 0.6061378000304103]","[0.09308440005406737, 0.07649339991621673]",2,BDKV,"['b', 'd']",False,,,758368,001,2024-11-17_12h00.19.545,DelayedPartialReportMethod,2024.1.5,None,2024-11-17 12h00.36.912350 +0530,
35,0,35,0,258.5405401000753,,,,,,,,,258.5244430000894,258.5405401000753,259.0395226001274,259.5225613999646,260.510488800006,260.51051530009136,260.52691589994356,265.5152660999447,['a'],[0.8653053999878466],[0.12130500003695488],0,DSNS,['a'],False,260.52691589994356,265.5306230999995,758368,001,2024-11-17_12h00.19.545,DelayedPartialReportMethod,2024.1.5,None,2024-11-17 12h00.36.912350 +0530,
36,0,36,0,265.5306230999995,,,,,,,,,265.5165440000128,265.5306230999995,266.0334694001358,266.5312290999573,267.5177392999176,267.5178032000549,267.53358460008167,272.5240204001311,['z'],[0.44704950018785894],[0.1289933999069035],1,ZXRT,['z'],False,267.53358460008167,,758368,001,2024-11-17_12h00.19.545,DelayedPartialReportMethod,2024.1.5,None,2024-11-17 12h00.36.912350 +0530,
37,0,37,0,272.53967930004,,,,,,,,,272.5255301001016,272.53967930004,273.0392114999704,273.5217655999586,274.5095683999825,274.5096029001288,274.5250528000761,279.51630220003426,['q'],[0.7048416999168694],[0.0989934999961406],1,GQCJ,['q'],False,274.5250528000761,279.5288535000291,758368,001,2024-11-17_12h00.19.545,DelayedPartialReportMethod,2024.1.5,None,2024-11-17 12h00.36.912350 +0530,
38,0,38,0,279.5288535000291,,,,,,,,,279.5178888000082,279.5288535000291,280.03111460013315,280.53011770010926,281.516440999927,281.51647219993174,281.5333138999995,286.5233551999554,['a'],[0.7378112999722362],[0.0959697999060154],0,BKAA,['a'],False,281.5333138999995,,758368,001,2024-11-17_12h00.19.545,DelayedPartialReportMethod,2024.1.5,None,2024-11-17 12h00.36.912350 +0530,
39,0,39,0,286.5365953000728,,,,,,,,,286.52509250002913,286.5365953000728,287.04126360011287,287.5219314000569,288.50754070002586,288.50757070002146,288.523747399915,293.514740700135,"['u', 'o']","[0.9359891000203788, 1.4287606000434607]","[0.11880160006694496, 0.1053808000870049]",1,OFUC,"['u', 'o']",False,288.523747399915,293.5301473001018,758368,001,2024-11-17_12h00.19.545,DelayedPartialReportMethod,2024.1.5,None,2024-11-17 12h00.36.912350 +0530,
40,0,40,0,293.5301473001018,,,,,,,,,293.5170360999182,293.5301473001018,294.02920230012387,294.52878760010935,295.514337599976,295.51436670008115,295.53136630007066,300.5211294000037,"['o', 'y']","[0.8082983000203967, 1.341200599912554]","[0.09680789988487959, 0.08848070004023612]",2,OYDF,"['o', 'y']",False,295.53136630007066,,758368,001,2024-11-17_12h00.19.545,DelayedPartialReportMethod,2024.1.5,None,2024-11-17 12h00.36.912350 +0530,
41,0,41,0,300.54150400008075,,,,,,,,,300.52282240008935,300.54150400008075,301.0554521000013,301.53741759993136,302.52238540002145,302.5224182000384,302.53874509991147,307.5260000000708,"['n', 'm']","[0.3367693000473082, 0.5761558001395315]","[0.1090392000041902, 0.08045369992032647]",2,NWAP,"['n', 'm']",False,,,758368,001,2024-11-17_12h00.19.545,DelayedPartialReportMethod,2024.1.5,None,2024-11-17 12h00.36.912350 +0530,
42,0,42,0,307.5450862001162,,,,,,,,,307.5270903001074,307.5450862001162,308.04808049998246,308.5285376000684,309.5135868000798,309.513613200048,309.5309947999194,314.52026219991967,"['f', 'j']","[1.3236038000322878, 1.7998277000151575]","[0.07926629995927215, 0.069355099927634]",1,FJLU,"['f', 'j']",False,309.5309947999194,314.5341485000681,758368,001,2024-11-17_12h00.19.545,DelayedPartialReportMethod,2024.1.5,None,2024-11-17 12h00.36.912350 +0530,
43,0,43,0,314.5341485000681,,,,,,,,,314.52197759994306,314.5341485000681,315.0350440000184,315.53600890003145,316.5206484000664,316.52066490007564,316.5370839999523,321.5246109000873,['m'],[0.37511719996109605],[0.06288020010106266],2,NNGH,['m'],False,316.5370839999523,,758368,001,2024-11-17_12h00.19.545,DelayedPartialReportMethod,2024.1.5,None,2024-11-17 12h00.36.912350 +0530,
44,0,44,0,321.54425649996847,,,,,,,,,321.52585650002584,321.54425649996847,322.05979510000907,322.52674899995327,323.51066739996895,323.510691100033,323.5289455000311,328.51755400002,"['e', 'z']","[0.7177037000656128, 1.1459594001062214]","[0.09937399998307228, 0.07213249988853931]",1,EZVC,"['e', 'z']",False,323.5289455000311,328.5334334000945,758368,001,2024-11-17_12h00.19.545,DelayedPartialReportMethod,2024.1.5,None,2024-11-17 12h00.36.912350 +0530,
45,0,45,0,328.5334334000945,,,,,,,,,328.5199464999605,328.5334334000945,329.0348127000034,329.5350778000429,330.52205469994806,330.5220834999345,330.53488730010577,335.52452629990876,['v'],[1.173347600037232],[0.08574429992586374],0,SMML,['v'],False,,,758368,001,2024-11-17_12h00.19.545,DelayedPartialReportMethod,2024.1.5,None,2024-11-17 12h00.36.912350 +0530,
46,0,46,0,335.541728500044,,,,,,,,,335.5264087000396,335.541728500044,336.04423850006424,336.5264022999909,337.51205400004983,337.51207719999366,337.52710609999485,342.5153868000489,['s'],[2.406292599858716],[0.08005380001850426],2,WSWY,['s'],False,337.52710609999485,342.53196480008774,758368,001,2024-11-17_12h00.19.545,DelayedPartialReportMethod,2024.1.5,None,2024-11-17 12h00.36.912350 +0530,
47,0,47,0,342.53196480008774,,,,,,,,,342.5168804000132,342.53196480008774,343.03139550006017,343.5337281001266,344.5183770000003,344.5184043000918,344.5342174000107,349.52306189993396,"['p', 'p']","[0.4637788999825716, 0.7511309999972582]","[0.06881830003112555, 0.07615839992649853]",2,PPKS,"['p', 'p']",False,344.5342174000107,,758368,001,2024-11-17_12h00.19.545,DelayedPartialReportMethod,2024.1.5,None,2024-11-17 12h00.36.912350 +0530,
48,0,48,0,349.5403146999888,,,,,,,,,349.52420350001194,349.5403146999888,350.05638370011,350.5250530000776,351.52901370008476,351.5290377000347,351.5412302999757,356.5310023999773,['h'],[0.7455112999305129],[0.061075600096955895],1,HNKX,['h'],False,,,758368,001,2024-11-17_12h00.19.545,DelayedPartialReportMethod,2024.1.5,None,2024-11-17 12h00.36.912350 +0530,
49,0,49,0,356.5486828999128,,,,,,,,,356.53212310001254,356.5486828999128,357.06354210013524,357.5328987000976,358.5182797999587,358.51830040011555,358.5347677001264,363.5226893001236,['c'],[0.9836864001117647],[0.055618599988520145],2,PKII,['c'],False,358.5347677001264,,758368,001,2024-11-17_12h00.19.545,DelayedPartialReportMethod,2024.1.5,None,2024-11-17 12h00.36.912350 +0530,
50,0,50,0,363.53834570012987,,,,,,,,,363.5238813001197,363.53834570012987,364.0419109000359,364.52347330003977,365.5088994000107,365.50891759991646,365.5239101999905,370.5131534000393,['v'],[0.6943427000660449],[0.06399449985474348],2,VSKK,['v'],False,365.5239101999905,370.52982040005736,758368,001,2024-11-17_12h00.19.545,DelayedPartialReportMethod,2024.1.5,None,2024-11-17 12h00.36.912350 +0530,
51,0,51,0,370.52982040005736,,,,,,,,,370.5145509999711,370.52982040005736,371.0286689000204,371.532249199925,372.5185183000285,372.5185529999435,372.5309450000059,377.5214710000437,['i'],[0.5998190001118928],[0.06909330002963543],1,IYHS,['i'],False,372.5309450000059,,758368,001,2024-11-17_12h00.19.545,DelayedPartialReportMethod,2024.1.5,None,2024-11-17 12h00.36.912350 +0530,
52,0,52,0,377.5381420000922,,,,,,,,,377.5225305999629,377.5381420000922,378.03985429997556,378.5225428000558,379.50887749996036,379.5089020000305,379.52222550008446,384.51409610011615,['v'],[0.9007615998852998],[0.05505910003557801],1,AVWH,['v'],False,379.52222550008446,384.5302333999425,758368,001,2024-11-17_12h00.19.545,DelayedPartialReportMethod,2024.1.5,None,2024-11-17 12h00.36.912350 +0530,
53,0,53,0,384.5302333999425,,,,,,,,,384.5150061000604,384.5302333999425,385.0282010999508,385.53233680012636,386.5299404000398,386.5299635999836,386.5472452000249,391.5360594999511,['a'],[0.68439060007222],[0.07284920010715723],1,CCVK,['a'],False,,,758368,001,2024-11-17_12h00.19.545,DelayedPartialReportMethod,2024.1.5,None,2024-11-17 12h00.36.912350 +0530,
54,0,54,0,391.55401730001904,,,,,,,,,391.5378326000646,391.55401730001904,392.0536819999106,392.5198580001015,393.50674260011874,393.5067735000048,393.52162480005063,398.51167119992897,"['h', 'g']","[1.9728809997905046, 3.4999688998796046]","[0.06846090010367334, 0.08231179998256266]",1,HGIV,"['h', 'g']",False,393.52162480005063,398.52832640009,758368,001,2024-11-17_12h00.19.545,DelayedPartialReportMethod,2024.1.5,None,2024-11-17 12h00.36.912350 +0530,
55,0,55,0,398.52832640009,,,,,,,,,398.5129956000019,398.52832640009,399.04290629993193,399.52952959993854,400.51387279992923,400.5138948999811,400.5310438000597,405.52232360001653,['y'],[0.7436367000918835],[0.053505699848756194],2,HNTV,['y'],False,400.5310438000597,,758368,001,2024-11-17_12h00.19.545,DelayedPartialReportMethod,2024.1.5,None,2024-11-17 12h00.36.912350 +0530,
56,0,56,0,405.53793950006366,,,,,,,,,405.52434320002794,405.53793950006366,406.0511710999999,406.51796189998277,407.5066092000343,407.50663810013793,407.52008219994605,412.5107485000044,['y'],[0.20981830009259284],[0.06731559988111258],1,YPDN,['y'],False,407.52008219994605,412.52855990012176,758368,001,2024-11-17_12h00.19.545,DelayedPartialReportMethod,2024.1.5,None,2024-11-17 12h00.36.912350 +0530,
57,0,57,0,412.52855990012176,,,,,,,,,412.512224300066,412.52855990012176,413.0298355000559,413.52743209991604,414.5122481000144,414.5122634000145,414.52825199998915,419.52066219993867,['i'],[2.135182299884036],[0.08789249998517334],0,NHID,['i'],False,414.52825199998915,419.53689659992233,758368,001,2024-11-17_12h00.19.545,DelayedPartialReportMethod,2024.1.5,None,2024-11-17 12h00.36.912350 +0530,
58,0,58,0,419.53689659992233,,,,,,,,,419.5224619000219,419.53689659992233,420.05061289994046,420.53587280004285,421.52176550007425,421.52179759996943,421.5365504999645,426.52545500011183,['x'],[1.0141206001862884],[0.07912239991128445],0,MXVF,['x'],False,421.5365504999645,,758368,001,2024-11-17_12h00.19.545,DelayedPartialReportMethod,2024.1.5,None,2024-11-17 12h00.36.912350 +0530,
59,0,59,0,426.542205600068,,,,,,,,,426.5268143999856,426.542205600068,427.05804280005395,427.5275606000796,428.511530400021,428.5115483000409,428.5277267000638,433.51986650004983,['u'],[0.9320508998353034],[0.094774299999699],1,VDLR,['u'],False,428.5277267000638,433.5329639001284,758368,001,2024-11-17_12h00.19.545,DelayedPartialReportMethod,2024.1.5,None,2024-11-17 12h00.36.912350 +0530,
60,0,60,0,433.5329639001284,,,,,,,,,433.52124799997546,433.5329639001284,434.03337460011244,434.53509530005977,435.51915830001235,435.5191762999166,435.53465240006335,440.5241455999203,['i'],[1.2435840999241918],[0.09694930003024638],0,YBUM,['i'],False,435.53465240006335,,758368,001,2024-11-17_12h00.19.545,DelayedPartialReportMethod,2024.1.5,None,2024-11-17 12h00.36.912350 +0530,
61,0,61,0,440.54312000004575,,,,,,,,,440.5258395001292,440.54312000004575,441.0568377999589,441.5245157999452,442.51010580011643,442.51012589992024,442.5270539999474,447.5177800001111,['g'],[0.23091890010982752],[0.08732719998806715],0,GLVK,['g'],False,442.5270539999474,447.53214920009486,758368,001,2024-11-17_12h00.19.545,DelayedPartialReportMethod,2024.1.5,None,2024-11-17 12h00.36.912350 +0530,
62,0,62,0,447.53214920009486,,,,,,,,,447.5194538999349,447.53214920009486,448.03270080010407,448.53417170001194,449.51940230000764,449.5194246999454,449.53462600009516,454.524010800058,None,,,2,EWSE,None,False,449.53462600009516,,758368,001,2024-11-17_12h00.19.545,DelayedPartialReportMethod,2024.1.5,None,2024-11-17 12h00.36.912350 +0530,
63,0,63,0,454.54044990008697,,,,,,,,,454.52548309997655,454.54044990008697,455.0413122000173,455.52297220006585,456.50983639992774,456.5098665000405,456.5269595000427,461.5175789000932,['i'],[0.1993072999175638],[0.08418289991095662],2,IVCQ,['i'],False,456.5269595000427,461.5322155000176,758368,001,2024-11-17_12h00.19.545,DelayedPartialReportMethod,2024.1.5,None,2024-11-17 12h00.36.912350 +0530,
64,0,64,0,461.5322155000176,,,,,,,,,461.51846210006624,461.5322155000176,462.03139610006474,462.5304384001065,463.5176387000829,463.5176661000587,463.53364309994504,468.5217220999766,"['l', 't']","[0.8561412000562996, 1.4957009002100676]","[0.07225650013424456, 0.07254549977369606]",2,LTXI,"['l', 't']",False,463.53364309994504,,758368,001,2024-11-17_12h00.19.545,DelayedPartialReportMethod,2024.1.5,None,2024-11-17 12h00.36.912350 +0530,
65,0,65,0,468.53894930006936,,,,,,,,,468.5233913999982,468.53894930006936,469.03940290003084,469.5214050000068,470.50700689991936,470.5070327001158,470.5238970001228,475.51660570013337,"['l', 'u']","[2.048083599889651, 2.4552797998767346]","[0.10387050011195242, 0.08890650002285838]",0,YYWW,"['l', 'u']",False,470.5238970001228,475.528345100116,758368,001,2024-11-17_12h00.19.545,DelayedPartialReportMethod,2024.1.5,None,2024-11-17 12h00.36.912350 +0530,
66,0,66,0,475.528345100116,,,,,,,,,475.5180039999541,475.528345100116,476.0300620000344,476.5304652999621,477.51537699997425,477.51540130004287,477.5331965999212,482.5233342999127,['d'],[1.6488665000069886],[0.08027000003494322],1,GDWQ,['d'],False,477.5331965999212,,758368,001,2024-11-17_12h00.19.545,DelayedPartialReportMethod,2024.1.5,None,2024-11-17 12h00.36.912350 +0530,
67,0,67,0,482.5365909000393,,,,,,,,,482.5246634001378,482.5365909000393,483.0357133001089,483.5204002999235,484.50754399993457,484.5075721000321,484.52359080011956,489.51169380010106,['q'],[1.390783900162205],[0.08601709990762174],1,MQZF,['q'],False,484.52359080011956,489.5271352001,758368,001,2024-11-17_12h00.19.545,DelayedPartialReportMethod,2024.1.5,None,2024-11-17 12h00.36.912350 +0530,
68,0,68,0,489.5271352001,,,,,,,,,489.51392840011977,489.5271352001,490.0287244999781,490.52759180008434,491.513694900088,491.51372299995273,491.53167970012873,496.52123249997385,['i'],[0.8970260999631137],[0.1235366000328213],2,JWXI,['i'],False,491.53167970012873,496.5346214999445,758368,001,2024-11-17_12h00.19.545,DelayedPartialReportMethod,2024.1.5,None,2024-11-17 12h00.36.912350 +0530,
69,0,69,0,496.5346214999445,,,,,,,,,496.5228991000913,496.5346214999445,497.03478260012344,497.5206351999659,498.5223346001003,498.5223588999361,498.5365814000834,503.5249363000039,['a'],[0.5040668998844922],[0.09615320013836026],0,ZGLH,['a'],False,,,758368,001,2024-11-17_12h00.19.545,DelayedPartialReportMethod,2024.1.5,None,2024-11-17 12h00.36.912350 +0530,
70,0,70,0,503.5430572000332,,,,,,,,,503.5271948000882,503.5430572000332,504.0457947999239,504.5283484000247,505.5281777000055,505.5282032000832,505.54528680001386,510.53417090000585,['g'],[0.22531420015729964],[0.08514750003814697],1,MGVU,['g'],False,,,758368,001,2024-11-17_12h00.19.545,DelayedPartialReportMethod,2024.1.5,None,2024-11-17 12h00.36.912350 +0530,
71,0,71,0,510.5514565000776,,,,,,,,,510.53627929999493,510.5514565000776,511.0682328999974,511.53551320009865,512.5213347999379,512.5213591000065,512.5381881999783,517.5264916000888,['v'],[1.1047622000332922],[0.0922465999610722],2,OCNT,['v'],False,,,758368,001,2024-11-17_12h00.19.545,DelayedPartialReportMethod,2024.1.5,None,2024-11-17 12h00.36.912350 +0530,
72,0,72,0,517.5424089001026,,,,,,,,,517.5282678999938,517.5424089001026,518.0433855000883,518.5262142999563,519.5122732000891,519.5123062999919,519.5259388999548,524.5202039999422,"['a', 'h']","[0.5528392000123858, 0.8550305000972003]","[0.1345887000206858, 0.10030539985746145]",2,AHBV,"['a', 'h']",False,519.5259388999548,524.5322783999145,758368,001,2024-11-17_12h00.19.545,DelayedPartialReportMethod,2024.1.5,None,2024-11-17 12h00.36.912350 +0530,
73,0,73,0,524.5322783999145,,,,,,,,,524.5215725000016,524.5322783999145,525.032012199983,525.5346606001258,526.5219477000646,526.5219686001074,526.5349308000877,531.5228889000136,['u'],[0.21325309993699193],[0.09070070018060505],0,LOQM,['u'],False,526.5349308000877,,758368,001,2024-11-17_12h00.19.545,DelayedPartialReportMethod,2024.1.5,None,2024-11-17 12h00.36.912350 +0530,
74,0,74,0,531.5429438999854,,,,,,,,,531.5241537999827,531.5429438999854,532.0566853000782,532.5253399999347,533.5090755999554,533.5090991000179,533.5248567999806,538.5151716999244,"['s', 'k']","[0.3184090000577271, 1.1728234000038356]","[0.17434819997288287, 0.22095629991963506]",0,XHNS,"['s', 'k']",False,533.5248567999806,538.5310235000215,758368,001,2024-11-17_12h00.19.545,DelayedPartialReportMethod,2024.1.5,None,2024-11-17 12h00.36.912350 +0530,
75,0,75,0,538.5310235000215,,,,,,,,,538.5167650000658,538.5310235000215,539.0310502001084,539.5333815999329,540.5205506000202,540.5205785001162,540.5323300000746,545.5235522000585,"['e', 'h']","[0.5879420000128448, 1.2973692000377923]","[0.0853534999769181, 0.08970659994520247]",2,TCQV,"['e', 'h']",False,540.5323300000746,,758368,001,2024-11-17_12h00.19.545,DelayedPartialReportMethod,2024.1.5,None,2024-11-17 12h00.36.912350 +0530,
76,0,76,0,545.5409625999164,,,,,,,,,545.5249397000298,545.5409625999164,546.0567048999947,546.5241167999338,547.5111030999105,547.5111322000157,547.5232524999883,552.5139296001289,"['i', 'b']","[0.4752583000808954, 0.9045577000360936]","[0.09628229984082282, 0.08260229998268187]",0,FBFY,"['i', 'b']",False,547.5232524999883,552.5304215999786,758368,001,2024-11-17_12h00.19.545,DelayedPartialReportMethod,2024.1.5,None,2024-11-17 12h00.36.912350 +0530,
77,0,77,0,552.5304215999786,,,,,,,,,552.5153948999941,552.5304215999786,553.0304604999255,553.531419100007,554.5149842000101,554.5150037999265,554.5311960000545,559.5210396000184,['z'],[1.089849199866876],[0.11481730011291802],0,GZGV,['z'],False,554.5311960000545,559.5382125000469,758368,001,2024-11-17_12h00.19.545,DelayedPartialReportMethod,2024.1.5,None,2024-11-17 12h00.36.912350 +0530,
78,0,78,0,559.5382125000469,,,,,,,,,559.522737500025,559.5382125000469,560.0372977999505,560.5212598999497,561.5060513999779,561.506067499984,561.5232265000232,566.5131429999601,"['e', 't']","[0.5214877999387681, 0.9378182999789715]","[0.08588969986885786, 0.06116179982200265]",2,LCBG,"['e', 't']",False,561.5232265000232,566.5322942000348,758368,001,2024-11-17_12h00.19.545,DelayedPartialReportMethod,2024.1.5,None,2024-11-17 12h00.36.912350 +0530,
79,0,79,0,566.5322942000348,,,,,,,,,566.5158931000624,566.5322942000348,567.0448775999248,567.5303070000373,568.5159118000884,568.5159471000079,568.5298584999982,573.5214239000343,['j'],[1.1077095998916775],[0.11290660011582077],2,JVUK,['j'],False,568.5298584999982,573.5364548000507,758368,001,2024-11-17_12h00.19.545,DelayedPartialReportMethod,2024.1.5,None,2024-11-17 12h00.36.912350 +0530,
80,0,80,0,573.5364548000507,,,,,,,,,573.5227133999579,573.5364548000507,574.0373476000968,574.5225591000635,575.5223064001184,575.522332200082,575.5380130999256,580.5286590000615,"['u', 'n']","[0.32342539983801544, 1.242110899882391]","[0.09491260000504553, 0.0494206000585109]",1,QZAC,"['u', 'n']",False,,,758368,001,2024-11-17_12h00.19.545,DelayedPartialReportMethod,2024.1.5,None,2024-11-17 12h00.36.912350 +0530,
81,0,81,0,580.5458212001249,,,,,,,,,580.5302415001206,580.5458212001249,581.0453149999958,581.5288827000186,582.5162500999868,582.5162850001361,582.531641199952,587.5203287999611,['a'],[0.6330405999906361],[0.10255680000409484],0,SOOD,['a'],False,582.531641199952,587.5348980000708,758368,001,2024-11-17_12h00.19.545,DelayedPartialReportMethod,2024.1.5,None,2024-11-17 12h00.36.912350 +0530,
82,0,82,0,587.5348980000708,,,,,,,,,587.5216779001057,587.5348980000708,588.037717500003,588.5195124000311,589.5074144001119,589.507444600109,589.5218033001292,594.5112757000607,['g'],[0.7609701999463141],[0.07413620012812316],1,HKPX,['g'],False,589.5218033001292,594.5273804999888,758368,001,2024-11-17_12h00.19.545,DelayedPartialReportMethod,2024.1.5,None,2024-11-17 12h00.36.912350 +0530,
83,0,83,0,594.5273804999888,,,,,,,,,594.5121092000045,594.5273804999888,595.0269122999161,595.527946199989,596.5128145001363,596.5128309000283,596.5289058999624,601.5189839000814,['x'],[0.2598287998698652],[0.11437220009975135],1,QKJL,['x'],False,596.5289058999624,601.5366561999545,758368,001,2024-11-17_12h00.19.545,DelayedPartialReportMethod,2024.1.5,None,2024-11-17 12h00.36.912350 +0530,
84,0,84,0,601.5366561999545,,,,,,,,,601.5204781999346,601.5366561999545,602.0339963000733,602.516859699972,603.5038227001205,603.5038562000263,603.5363924999256,608.5268351000268,['a'],[1.0563540000002831],[0.09609350003302097],0,JYKY,['a'],False,603.5212993000168,,758368,001,2024-11-17_12h00.19.545,DelayedPartialReportMethod,2024.1.5,None,2024-11-17 12h00.36.912350 +0530,
85,0,85,0,608.5425362000242,,,,,,,,,608.5286213001236,608.5425362000242,609.0427542999387,609.525152000133,610.5115149000194,610.5115308999084,610.5278731000144,615.5180921000428,"['n', 'i']","[0.33012089994736016, 0.590055099921301]","[0.08429679996334016, 0.09583529992960393]",2,NTVM,"['n', 'i']",False,610.5278731000144,615.5334970001131,758368,001,2024-11-17_12h00.19.545,DelayedPartialReportMethod,2024.1.5,None,2024-11-17 12h00.36.912350 +0530,
86,0,86,0,615.5334970001131,,,,,,,,,615.5198236999568,615.5334970001131,616.0338336999994,616.5365915000439,617.5351414999459,617.5351672000252,617.552050499944,622.5250999000855,"['q', 'a']","[1.4757111000362784, 1.704823900014162]","[0.08165619987994432, 0.08092260011471808]",2,QANO,"['q', 'a']",False,,,758368,001,2024-11-17_12h00.19.545,DelayedPartialReportMethod,2024.1.5,None,2024-11-17 12h00.36.912350 +0530,
87,0,87,0,622.5421360000037,,,,,,,,,622.5267739000265,622.5421360000037,623.0407179000322,623.5236454000697,624.5114945999812,624.5115360000636,624.5288128999528,629.51988789998,"['v', 'v']","[0.5431804999243468, 0.8342160999309272]","[0.10619660001248121, 0.09383050003089011]",2,HVVT,"['v', 'v']",False,624.5288128999528,629.5320727000944,758368,001,2024-11-17_12h00.19.545,DelayedPartialReportMethod,2024.1.5,None,2024-11-17 12h00.36.912350 +0530,
88,0,88,0,629.5320727000944,,,,,,,,,629.5217909999192,629.5320727000944,630.0316675000358,630.5347764000762,631.518778800033,631.518803199986,631.5349465000909,636.5244674000423,"['r', 'h']","[1.1422232000622898, 1.592921799980104]","[0.09372189990244806, 0.08186809998005629]",2,RHWP,"['r', 'h']",False,631.5349465000909,,758368,001,2024-11-17_12h00.19.545,DelayedPartialReportMethod,2024.1.5,None,2024-11-17 12h00.36.912350 +0530,
89,0,89,0,636.5393403000198,,,,,,,,,636.5259173999075,636.5393403000198,637.0420057000592,637.5224427999929,638.5105024001095,638.5105375000276,638.5255207999144,643.5157624001149,"['h', 'g']","[0.6000033000018448, 0.8843503000680357]","[0.09581600013189018, 0.08390769991092384]",1,HGAV,"['h', 'g']",False,638.5255207999144,643.53201490012,758368,001,2024-11-17_12h00.19.545,DelayedPartialReportMethod,2024.1.5,None,2024-11-17 12h00.36.912350 +0530,
90,0,90,0,643.53201490012,,,,,,,,,643.5178054000717,643.53201490012,644.0323779999744,644.5332031999715,645.5202866999898,645.5203343001194,645.535882400116,650.5246075999457,['e'],[1.6847594999708235],[0.07878470001742244],0,WYMU,['e'],False,645.535882400116,,758368,001,2024-11-17_12h00.19.545,DelayedPartialReportMethod,2024.1.5,None,2024-11-17 12h00.36.912350 +0530,
91,0,91,0,650.5401735999621,,,,,,,,,650.5259964000434,650.5401735999621,651.0384840001352,651.5237070999574,652.5093821000773,652.5094097000547,652.5258369999938,657.5166134999599,"['j', 'e']","[0.6657585001084954, 1.269182300195098]","[0.07929000002332032, 0.08352599991485476]",0,JELO,"['j', 'e']",False,652.5258369999938,657.5289537999779,758368,001,2024-11-17_12h00.19.545,DelayedPartialReportMethod,2024.1.5,None,2024-11-17 12h00.36.912350 +0530,
92,0,92,0,657.5289537999779,,,,,,,,,657.518058600137,657.5289537999779,658.0324937000405,658.530038200086,659.5168308001012,659.5168590000831,659.53185759997,664.5236359999981,"['b', 'i']","[0.45147160021588206, 0.9378161001950502]","[0.07264679996296763, 0.08847359986975789]",0,MIJF,"['b', 'i']",False,659.53185759997,,758368,001,2024-11-17_12h00.19.545,DelayedPartialReportMethod,2024.1.5,None,2024-11-17 12h00.36.912350 +0530,
93,0,93,0,664.5367527999915,,,,,,,,,664.5245561001357,664.5367527999915,665.0384100999217,665.5222136999946,666.506934300065,666.5069611999206,666.5233281999826,671.5141217999626,"['h', 'e']","[0.38453479995951056, 0.8042542999610305]","[0.09115650015883148, 0.0817339001223445]",1,JNWS,"['h', 'e']",False,666.5233281999826,671.528084800113,758368,001,2024-11-17_12h00.19.545,DelayedPartialReportMethod,2024.1.5,None,2024-11-17 12h00.36.912350 +0530,
94,0,94,0,671.528084800113,,,,,,,,,671.5152569001075,671.528084800113,672.0297407000326,672.5288887000643,673.5152129000053,673.5152370999567,673.5329712999519,678.521199400071,None,,,1,KEFL,None,False,673.5329712999519,,758368,001,2024-11-17_12h00.19.545,DelayedPartialReportMethod,2024.1.5,None,2024-11-17 12h00.36.912350 +0530,
95,0,95,0,678.5361659999471,,,,,,,,,678.5226461000275,678.5361659999471,679.0403489000164,679.5218577999622,680.5062295999378,680.5062573000323,680.5242361999117,685.5125035000965,"['t', 'k']","[0.09365699999034405, 1.475455000065267]","[0.08814820018596947, 0.08894650009460747]",1,TKKJ,"['t', 'k']",False,680.5242361999117,685.5263835000806,758368,001,2024-11-17_12h00.19.545,DelayedPartialReportMethod,2024.1.5,None,2024-11-17 12h00.36.912350 +0530,
96,0,96,0,685.5263835000806,,,,,,,,,685.5146266999654,685.5263835000806,686.0283033999149,686.5278835000936,687.5138298999518,687.5138550999109,687.531491599977,692.5188506001141,['k'],[0.7077043999452144],[0.10917309997603297],0,KUQW,['k'],False,687.531491599977,692.5344551999588,758368,001,2024-11-17_12h00.19.545,DelayedPartialReportMethod,2024.1.5,None,2024-11-17 12h00.36.912350 +0530,
97,0,97,0,692.5344551999588,,,,,,,,,692.5212793000974,692.5344551999588,693.0356743000448,693.5345101999119,694.523726799991,694.5237575999927,694.5362191000022,699.5241105000023,"['x', 'y']","[1.7393333001527935, 2.2859078000765294]","[0.07591549982316792, 0.05636789998970926]",1,XYHB,"['x', 'y']",False,,,758368,001,2024-11-17_12h00.19.545,DelayedPartialReportMethod,2024.1.5,None,2024-11-17 12h00.36.912350 +0530,
98,0,98,0,699.5428448999301,,,,,,,,,699.5253413999453,699.5428448999301,700.0421066000126,700.5275195001159,701.5116693000309,701.5116983000189,701.5308650000952,706.5202019000426,['g'],[0.25356250000186265],[0.0660937000066042],0,GKKF,['g'],False,701.5308650000952,706.532172499923,758368,001,2024-11-17_12h00.19.545,DelayedPartialReportMethod,2024.1.5,None,2024-11-17 12h00.36.912350 +0530,
99,0,99,0,706.532172499923,,,,,,,,,706.521137499949,706.532172499923,707.0350234999787,707.5337358000688,708.5195851000026,708.5196108999662,708.5358442000579,713.5247704999056,['x'],[0.7789009001571685],[0.11834559985436499],2,HHHG,['x'],False,708.5358442000579,,758368,001,2024-11-17_12h00.19.545,DelayedPartialReportMethod,2024.1.5,None,2024-11-17 12h00.36.912350 +0530,
