trials.thisRepN,trials.thisTrialN,trials.thisN,trials.thisIndex,thisRow.t,notes,introduction.started,text.started,key_resp.started,introduction.stopped,key_resp.keys,key_resp.rt,key_resp.duration,trial.started,letter_grid.started,letter_grid.stopped,row_cue.started,row_cue.stopped,trial.stopped,response_routine.started,response.started,response.stopped,response_routine.stopped,response.keys,Cued Row,Correct Row,Participant Response,Is Correct,response.rt,response.duration,participant,session,date,expName,psychopyVersion,frameRate,expStart,
,,,,,,0.00359259988181293,0.011537299957126379,0.011537299957126379,14.889108099974692,space,14.783965300070122,None,,,,,,,,,,,,,,,,,,981265,001,2024-11-17_23h27.52.686,DelayedPartialReportMethod,2024.1.5,None,2024-11-17 23h27.59.487025 +0530,
0,0,0,0,14.906408499926329,,,,,,,,,14.892081199912354,14.906408499926329,15.40890649985522,15.892430000007153,16.89371019997634,16.878171199932694,16.87818879983388,16.89371019997634,21.978255899855867,21.88344829995185,None,0,SCTG,None,False,,,981265,001,2024-11-17_23h27.52.686,DelayedPartialReportMethod,2024.1.5,None,2024-11-17 23h27.59.487025 +0530,
1,0,1,0,21.978255899855867,,,,,,,,,21.886762299807742,21.978255899855867,22.48319199983962,22.900712999980897,23.9012642998714,23.88631819980219,23.886344499886036,23.9012642998714,,28.890605099964887,"['n', 'f']",0,NFDO,"['n', 'f']",False,"[0.4963410999625921, 1.2617532999720424]","[0.22972519998438656, 0.15987340011633933]",981265,001,2024-11-17_23h27.52.686,DelayedPartialReportMethod,2024.1.5,None,2024-11-17 23h27.59.487025 +0530,
2,0,2,0,28.906753899995238,,,,,,,,,28.892998199909925,28.906753899995238,29.40762749989517,29.891096299979836,30.893095899838954,30.876999099971727,30.877014399971813,30.893095899838954,35.897971499944106,35.88261740002781,"['t', 'p']",0,TPVM,"['t', 'p']",False,"[0.4632644997909665, 1.0127757999580353]","[0.25209550000727177, 0.3272456999402493]",981265,001,2024-11-17_23h27.52.686,DelayedPartialReportMethod,2024.1.5,None,2024-11-17 23h27.59.487025 +0530,
3,0,3,0,35.897971499944106,,,,,,,,,35.884646699996665,35.897971499944106,36.39840059983544,36.8997349999845,37.90038519981317,37.88426849991083,37.88428759993985,37.90038519981317,42.90562550001778,42.88966159988195,"['q', 's']",0,QAXK,"['q', 's']",False,"[1.4895613000262529, 2.5228159001562744]","[0.28263649996370077, 0.2899813998956233]",981265,001,2024-11-17_23h27.52.686,DelayedPartialReportMethod,2024.1.5,None,2024-11-17 23h27.59.487025 +0530,
4,0,4,0,42.90562550001778,,,,,,,,,42.891105899820104,42.90562550001778,43.40634649991989,43.89030719990842,44.891092099947855,44.87534469994716,44.87537539983168,44.891092099947855,49.89661189983599,49.88101139990613,"['y', 't']",2,YTJE,"['y', 't']",False,"[0.3451213000807911, 0.7645091000013053]","[0.2013784998562187, 0.24547840002924204]",981265,001,2024-11-17_23h27.52.686,DelayedPartialReportMethod,2024.1.5,None,2024-11-17 23h27.59.487025 +0530,
5,0,5,0,49.89661189983599,,,,,,,,,49.882551399990916,49.89661189983599,50.397594099864364,50.89784329989925,51.89942259993404,51.88344389991835,51.8834716998972,51.89942259993404,56.90449339989573,56.888367999810725,"['l', 'v']",1,LVHV,"['l', 'v']",False,"[0.8627432000357658, 1.320342699997127]","[0.2700952999293804, 0.23783080000430346]",981265,001,2024-11-17_23h27.52.686,DelayedPartialReportMethod,2024.1.5,None,2024-11-17 23h27.59.487025 +0530,
6,0,6,0,56.90449339989573,,,,,,,,,56.89072519983165,56.90449339989573,57.40521919983439,57.88867629994638,58.88992659980431,58.87403029995039,58.8740483999718,58.88992659980431,63.89607060002163,63.87980799982324,"['d', 'w']",0,DWFB,"['d', 'w']",False,"[1.918127299984917, 2.4453857000917196]","[0.2836071001365781, 0.26357319997623563]",981265,001,2024-11-17_23h27.52.686,DelayedPartialReportMethod,2024.1.5,None,2024-11-17 23h27.59.487025 +0530,
7,0,7,0,63.89607060002163,,,,,,,,,63.881069799885154,63.89607060002163,64.39614339987747,64.89648039988242,65.89687259984203,65.8814538998995,65.88149159983732,65.89687259984203,70.9030347999651,70.88712299987674,"['q', 'g']",0,OGVP,"['q', 'g']",False,"[0.4973222000990063, 1.246508900076151]","[0.2490045998711139, 0.25759120006114244]",981265,001,2024-11-17_23h27.52.686,DelayedPartialReportMethod,2024.1.5,None,2024-11-17 23h27.59.487025 +0530,
8,0,8,0,70.9030347999651,,,,,,,,,70.88969599991105,70.9030347999651,71.4038688999135,71.90418830001727,72.90543309994973,72.88938879990019,72.88940360001288,72.90543309994973,,77.89492330001667,"['p', 'l']",0,PLVI,"['p', 'l']",False,"[0.3469297999981791, 0.7290308999363333]","[0.25040160003118217, 0.32816820009611547]",981265,001,2024-11-17_23h27.52.686,DelayedPartialReportMethod,2024.1.5,None,2024-11-17 23h27.59.487025 +0530,
9,0,9,0,77.91072109993547,,,,,,,,,77.89607100002468,77.91072109993547,78.41147839999758,78.89553189999424,79.89701780001633,79.88078809995204,79.88082790002227,79.89701780001633,84.90193920000456,84.88602879992686,"['h', 'e']",2,HETD,"['h', 'e']",False,"[0.084850599989295, 0.37669580010697246]","[0.23332580015994608, 0.24316779989749193]",981265,001,2024-11-17_23h27.52.686,DelayedPartialReportMethod,2024.1.5,None,2024-11-17 23h27.59.487025 +0530,
10,0,10,0,84.90193920000456,,,,,,,,,84.88696949998848,84.90193920000456,85.4026907000225,85.9031141998712,86.90400999994017,86.88845109986141,86.8884922999423,86.90400999994017,,91.89288439997472,"['y', 's']",1,KSZS,"['y', 's']",False,"[0.24502219981513917, 0.5556737999431789]","[0.23875830019824207, 0.28986599994823337]",981265,001,2024-11-17_23h27.52.686,DelayedPartialReportMethod,2024.1.5,None,2024-11-17 23h27.59.487025 +0530,
11,0,11,0,91.90945169981569,,,,,,,,,91.8944426998496,91.90945169981569,92.41028800001368,92.89480250002816,93.89552699984051,93.87972239986993,93.87974799983203,93.89552699984051,98.90033899992704,98.88464169995859,"['k', 'j']",2,KJHL,"['k', 'j']",False,"[0.41149760014377534, 0.931938000023365]","[0.22210350004024804, 0.20996380015276372]",981265,001,2024-11-17_23h27.52.686,DelayedPartialReportMethod,2024.1.5,None,2024-11-17 23h27.59.487025 +0530,
12,0,12,0,98.90033899992704,,,,,,,,,98.88564569992013,98.90033899992704,99.40121779986657,99.90164930000901,100.90286719985306,100.8872529999353,100.88727099983953,100.90286719985306,,105.89186019985937,"['r', 'e']",0,FRET,"['r', 'e']",False,"[1.4218037000391632, 1.8187619000673294]","[0.2874332999344915, 0.2509706998243928]",981265,001,2024-11-17_23h27.52.686,DelayedPartialReportMethod,2024.1.5,None,2024-11-17 23h27.59.487025 +0530,
13,0,13,0,105.90842409990728,,,,,,,,,105.89325349987485,105.90842409990728,106.40885240002535,106.89326779986732,107.89426229987293,107.87874999991618,107.87876429990865,107.89426229987293,112.8995786998421,112.8836095998995,"['j', 'a']",2,CXLN,"['j', 'a']",False,"[1.3191492999903858, 1.536703399848193]","[0.20870279986411333, 0.26733890012837946]",981265,001,2024-11-17_23h27.52.686,DelayedPartialReportMethod,2024.1.5,None,2024-11-17 23h27.59.487025 +0530,
14,0,14,0,112.8995786998421,,,,,,,,,112.88452690001577,112.8995786998421,113.40020139981061,113.90035799983889,114.90151109988801,114.88611999992281,114.88617129996419,114.90151109988801,,119.8904448999092,"['t', 'i']",0,GXHR,"['t', 'i']",False,"[1.097548200050369, 1.3908289999235421]","[0.2863107000011951, 0.1756067001260817]",981265,001,2024-11-17_23h27.52.686,DelayedPartialReportMethod,2024.1.5,None,2024-11-17 23h27.59.487025 +0530,
15,0,15,0,119.90771199995652,,,,,,,,,119.89164709998295,119.90771199995652,120.4075901999604,120.89189119986258,121.89292669994757,121.87661479995586,121.87663059984334,121.89292669994757,126.89799189986661,126.88194260001183,"['i', 'q']",2,VYHM,"['i', 'q']",False,"[0.9051976001355797, 1.2237110000569373]","[0.30436949990689754, 0.33846269990317523]",981265,001,2024-11-17_23h27.52.686,DelayedPartialReportMethod,2024.1.5,None,2024-11-17 23h27.59.487025 +0530,
16,0,16,0,126.89799189986661,,,,,,,,,126.88306309981272,126.89799189986661,127.39897729991935,127.89905010000803,128.90033899992704,128.88428529980592,128.88430379983038,128.90033899992704,133.90618859999813,133.88956829998642,"['i', 'q']",1,LQUX,"['i', 'q']",False,"[0.27828049985691905, 0.8446133998222649]","[0.26935359998606145, 0.3028783001936972]",981265,001,2024-11-17_23h27.52.686,DelayedPartialReportMethod,2024.1.5,None,2024-11-17 23h27.59.487025 +0530,
17,0,17,0,133.90618859999813,,,,,,,,,133.89186730002984,133.90618859999813,134.40640849992633,134.89085359987803,135.89190759998746,135.87585419998504,135.87586809997447,135.89190759998746,140.8970555998385,140.88103919988498,['w'],1,SWIR,['w'],False,[0.505505200009793],[0.2568518000189215],981265,001,2024-11-17_23h27.52.686,DelayedPartialReportMethod,2024.1.5,None,2024-11-17 23h27.59.487025 +0530,
18,0,18,0,140.8970555998385,,,,,,,,,140.88191689993255,140.8970555998385,141.39737010002136,141.8979411998298,142.8989375999663,142.88343629986048,142.88345299987122,142.8989375999663,147.9044861998409,147.88935029995628,"['o', 'h']",2,OHBP,"['o', 'h']",False,"[0.2078420000616461, 0.532819899963215]","[0.2656121999025345, 0.19747680006548762]",981265,001,2024-11-17_23h27.52.686,DelayedPartialReportMethod,2024.1.5,None,2024-11-17 23h27.59.487025 +0530,
19,0,19,0,147.9044861998409,,,,,,,,,147.89308690000325,147.9044861998409,148.40537559986115,148.88921249983832,149.89015039987862,149.87415829999372,149.87417609989643,149.89015039987862,154.89548269985244,154.88011020002887,"['n', 'u']",1,NUKH,"['n', 'u']",False,"[0.2622630000114441, 0.6721979998983443]","[0.223326199920848, 0.20317550003528595]",981265,001,2024-11-17_23h27.52.686,DelayedPartialReportMethod,2024.1.5,None,2024-11-17 23h27.59.487025 +0530,
20,0,20,0,154.89548269985244,,,,,,,,,154.88156190002337,154.89548269985244,155.39640849991702,155.89711529994383,156.897692799801,156.88204970001243,156.8820666000247,156.897692799801,161.9031607999932,161.88732580002397,"['t', 'i']",2,WRWM,"['t', 'i']",False,"[0.9873420998919755, 1.4976907998789102]","[0.33256580005399883, 0.25314270006492734]",981265,001,2024-11-17_23h27.52.686,DelayedPartialReportMethod,2024.1.5,None,2024-11-17 23h27.59.487025 +0530,
21,0,21,0,161.9031607999932,,,,,,,,,161.8881939998828,161.9031607999932,162.40456269984134,162.90421279985458,,163.88966390001588,163.88968999986537,163.90603179996833,,168.89493579999544,"['n', 's']",0,NSZU,"['n', 's']",False,"[0.18982780002988875, 0.44154759985394776]","[0.25285029993392527, 0.29949160013347864]",981265,001,2024-11-17_23h27.52.686,DelayedPartialReportMethod,2024.1.5,None,2024-11-17 23h27.59.487025 +0530,
22,0,22,0,168.91125010000542,,,,,,,,,168.89611249999143,168.91125010000542,169.41155509999953,169.89565339987166,170.89655449986458,170.88065809989348,170.8806739000138,170.89655449986458,175.9018929998856,175.8862953998614,"['e', 'u']",0,MWBC,"['e', 'u']",False,"[0.9992043999955058, 1.4044833998195827]","[0.29956209985539317, 0.23539220006205142]",981265,001,2024-11-17_23h27.52.686,DelayedPartialReportMethod,2024.1.5,None,2024-11-17 23h27.59.487025 +0530,
23,0,23,0,175.9018929998856,,,,,,,,,175.88718239986338,175.9018929998856,176.4028197999578,176.90315069979988,177.9043500998523,177.8881353000179,177.88815089990385,177.9043500998523,,182.89310580003075,"['w', 'o']",1,WOHD,"['w', 'o']",False,"[0.3487209000159055, 0.6676782998256385]","[0.2672286999877542, 0.2559102000668645]",981265,001,2024-11-17_23h27.52.686,DelayedPartialReportMethod,2024.1.5,None,2024-11-17 23h27.59.487025 +0530,
24,0,24,0,182.90967540000565,,,,,,,,,182.89403919992037,182.90967540000565,183.41067030001432,183.89434509980492,184.8952418998815,184.87939050002024,184.87941039982252,184.8952418998815,189.90248309983872,189.88473499985412,"['e', 'c']",0,ECEP,"['e', 'c']",False,"[0.7864004999864846, 1.6727448999881744]","[0.2367765000090003, 0.2952705998905003]",981265,001,2024-11-17_23h27.52.686,DelayedPartialReportMethod,2024.1.5,None,2024-11-17 23h27.59.487025 +0530,
25,0,25,0,189.90248309983872,,,,,,,,,189.8863794999197,189.90248309983872,190.40138749987818,190.9020417998545,191.90330629982054,191.88703139987774,191.88704719999805,191.90330629982054,,196.89242199994624,['h'],1,UHAO,['h'],False,[0.28119270014576614],[0.21686060004867613],981265,001,2024-11-17_23h27.52.686,DelayedPartialReportMethod,2024.1.5,None,2024-11-17 23h27.59.487025 +0530,
26,0,26,0,196.90917030000128,,,,,,,,,196.89344289992005,196.90917030000128,197.4094612998888,197.89366359985434,198.89407959999517,198.87871969980188,198.8787361998111,198.89407959999517,203.89996019983664,203.88381149992347,"['p', 'r']",2,FGFU,"['p', 'r']",False,"[0.4599017999134958, 0.7601781999692321]","[0.28901649988256395, 0.2812810998875648]",981265,001,2024-11-17_23h27.52.686,DelayedPartialReportMethod,2024.1.5,None,2024-11-17 23h27.59.487025 +0530,
27,0,27,0,203.89996019983664,,,,,,,,,203.88462239992805,203.89996019983664,204.40042329998687,204.90137570002116,205.90182639984414,205.88583009992726,205.88584509980865,205.90182639984414,,210.8909819999244,"['q', 'y']",1,QYLC,"['q', 'y']",False,"[0.4709366001188755, 0.9997801000718027]","[0.27251269994303584, 0.2330858998466283]",981265,001,2024-11-17_23h27.52.686,DelayedPartialReportMethod,2024.1.5,None,2024-11-17 23h27.59.487025 +0530,
28,0,28,0,210.9074366998393,,,,,,,,,210.89268269995227,210.9074366998393,211.40791239985265,211.89185529993847,212.89305269997567,212.87734270002693,212.87736469996162,212.89305269997567,217.89833589992486,217.88262189994566,"['o', 'q']",2,OQQW,"['o', 'q']",False,"[0.20910720014944673, 0.9084739000536501]","[0.2396677997894585, 0.21671850001439452]",981265,001,2024-11-17_23h27.52.686,DelayedPartialReportMethod,2024.1.5,None,2024-11-17 23h27.59.487025 +0530,
29,0,29,0,217.89833589992486,,,,,,,,,217.88348530000076,217.89833589992486,218.3990354000125,218.89964109985158,219.90105919982307,219.88584230002016,219.88586079981178,219.90105919982307,,224.88974619982764,"['l', 'm', 'u']",1,UTUM,"['l', 'm', 'u']",False,"[1.8047462000977248, 2.08874769997783, 3.10581440012902]","[0.19723189994692802, 0.3273037001490593, 0.25468749995343387]",981265,001,2024-11-17_23h27.52.686,DelayedPartialReportMethod,2024.1.5,None,2024-11-17 23h27.59.487025 +0530,
30,0,30,0,224.90610729996115,,,,,,,,,224.89094799989834,224.90610729996115,225.40654649981298,225.89050969993696,226.89196299994364,226.8759027000051,226.8759227998089,226.89196299994364,231.8968625999987,231.8812039999757,"['x', 'o']",1,XOKJ,"['x', 'o']",False,"[0.7662152999546379, 1.629856999963522]","[0.289424299960956, 0.1905710999853909]",981265,001,2024-11-17_23h27.52.686,DelayedPartialReportMethod,2024.1.5,None,2024-11-17 23h27.59.487025 +0530,
31,0,31,0,231.8968625999987,,,,,,,,,231.88237719982862,231.8968625999987,232.3972136999946,232.89826129982248,233.89900269987993,233.88346959999762,233.88348810002208,233.89900269987993,238.9049257999286,238.88960929983296,"['r', 'q']",2,ASYO,"['r', 'q']",False,"[0.24938659998588264, 0.7604830998461694]","[0.34733120002783835, 0.3616427001543343]",981265,001,2024-11-17_23h27.52.686,DelayedPartialReportMethod,2024.1.5,None,2024-11-17 23h27.59.487025 +0530,
32,0,32,0,238.9049257999286,,,,,,,,,238.89042609999888,238.9049257999286,239.40542209986597,239.88934929994866,240.89063809998333,240.87448609992862,240.8745013999287,240.89063809998333,245.8960152999498,245.8793426998891,"['a', 'q']",0,DKOK,"['a', 'q']",False,"[0.1090485998429358, 0.9252920998260379]","[0.29299530014395714, 0.26049680006690323]",981265,001,2024-11-17_23h27.52.686,DelayedPartialReportMethod,2024.1.5,None,2024-11-17 23h27.59.487025 +0530,
33,0,33,0,245.8960152999498,,,,,,,,,245.88018530001864,245.8960152999498,246.3959549998399,246.8963471997995,247.8977171999868,247.88246389990672,247.88248069980182,247.8977171999868,252.90301399980672,252.88701119995676,"['h', 'n']",2,VNHR,"['h', 'n']",False,"[1.428471599938348, 2.113270499976352]","[0.235947199864313, 0.23089799983426929]",981265,001,2024-11-17_23h27.52.686,DelayedPartialReportMethod,2024.1.5,None,2024-11-17 23h27.59.487025 +0530,
34,0,34,0,252.90301399980672,,,,,,,,,252.88785199983977,252.90301399980672,253.40372589998879,253.90433369996026,254.9056776999496,254.88983929995447,254.88987079984508,254.9056776999496,,259.894344399916,"['d', 'x']",0,DXUU,"['d', 'x']",False,"[0.8650863999500871, 1.3504043999128044]","[0.22031860006973147, 0.31651660008355975]",981265,001,2024-11-17_23h27.52.686,DelayedPartialReportMethod,2024.1.5,None,2024-11-17 23h27.59.487025 +0530,
35,0,35,0,259.9109429998789,,,,,,,,,259.8953201000113,259.9109429998789,260.41134769981727,260.89559759991243,261.8966475999914,261.8806129998993,261.8806435998995,261.8966475999914,266.90266859997064,266.8857580998447,"['q', 'j']",1,QJOG,"['q', 'j']",False,"[0.30576639994978905, 0.7825541999191046]","[0.24933789996430278, 0.16168990009464324]",981265,001,2024-11-17_23h27.52.686,DelayedPartialReportMethod,2024.1.5,None,2024-11-17 23h27.59.487025 +0530,
36,0,36,0,266.90266859997064,,,,,,,,,266.8865920000244,266.90266859997064,267.40235839993693,267.9031183999032,268.9041167998221,268.88808589987457,268.88810459990054,268.9041167998221,,273.8933591998648,"['a', 'x']",1,QYBP,"['a', 'x']",False,"[1.0597232000436634, 2.1655274000950158]","[0.4356841000262648, 0.28750550001859665]",981265,001,2024-11-17_23h27.52.686,DelayedPartialReportMethod,2024.1.5,None,2024-11-17 23h27.59.487025 +0530,
37,0,37,0,273.90952739981003,,,,,,,,,273.89436499984004,273.90952739981003,274.41009039990604,274.8941762999166,275.8954967998434,275.8791000000201,275.8791180998087,275.8954967998434,280.9011664998252,280.88542209984735,['d'],1,LEWU,['d'],False,[0.15850079990923405],[0.2336997000966221],981265,001,2024-11-17_23h27.52.686,DelayedPartialReportMethod,2024.1.5,None,2024-11-17 23h27.59.487025 +0530,
38,0,38,0,280.9011664998252,,,,,,,,,280.8862441999372,280.9011664998252,281.4016672000289,281.90284829982556,282.9031707998365,282.88795250002295,282.8879680999089,282.9031707998365,,287.8923700999003,"['r', 'n']",0,RNJD,"['r', 'n']",False,"[0.4651276001241058, 0.7068418001290411]","[0.26412229984998703, 0.19738669996149838]",981265,001,2024-11-17_23h27.52.686,DelayedPartialReportMethod,2024.1.5,None,2024-11-17 23h27.59.487025 +0530,
39,0,39,0,287.9088581998367,,,,,,,,,287.8934241000097,287.9088581998367,288.4101706999354,288.893138299929,289.8947079000063,289.8785920999944,289.8786068998743,289.8947079000063,294.9000295000151,294.88452129997313,None,0,QMIZ,None,False,,,981265,001,2024-11-17_23h27.52.686,DelayedPartialReportMethod,2024.1.5,None,2024-11-17 23h27.59.487025 +0530,
40,0,40,0,294.9000295000151,,,,,,,,,294.88511739997193,294.9000295000151,295.40059999981895,295.90105489990674,296.9023721998092,296.88614839990623,296.8861644999124,296.9023721998092,,301.89108169986866,"['w', 'a']",0,WAFM,"['w', 'a']",False,"[0.858770800055936, 1.4498149000573903]","[0.21338730002753437, 0.3379013000521809]",981265,001,2024-11-17_23h27.52.686,DelayedPartialReportMethod,2024.1.5,None,2024-11-17 23h27.59.487025 +0530,
41,0,41,0,301.9079114999622,,,,,,,,,301.8921809999738,301.9079114999622,302.40828189998865,302.8919653999619,303.89308329997584,303.8777923998423,303.8778083999641,303.89308329997584,308.8984777999576,308.88269509980455,"['l', 'q']",0,LQZV,"['l', 'q']",False,"[0.427507100161165, 0.7927421999629587]","[0.5370236998423934, 0.2570137002039701]",981265,001,2024-11-17_23h27.52.686,DelayedPartialReportMethod,2024.1.5,None,2024-11-17 23h27.59.487025 +0530,
42,0,42,0,308.8984777999576,,,,,,,,,308.8835338000208,308.8984777999576,309.3991441000253,309.90003909985535,310.9008463998325,310.8855937998742,310.885609399993,310.9008463998325,,315.88983160001226,"['k', 'j']",2,XCPK,"['k', 'j']",False,"[0.9590534998569638, 1.2230982999317348]","[0.1935199999716133, 0.2270674998871982]",981265,001,2024-11-17_23h27.52.686,DelayedPartialReportMethod,2024.1.5,None,2024-11-17 23h27.59.487025 +0530,
43,0,43,0,315.9061984999571,,,,,,,,,315.89181469986215,315.9061984999571,316.4069347998593,316.8911746998783,317.8922452998813,317.8760532999877,317.87606889987364,317.8922452998813,322.89770099986345,322.8819003999233,"['s', 'q']",1,SQAC,"['s', 'q']",False,"[None, 0.5133751002140343]","[None, 0.2982847997918725]",981265,001,2024-11-17_23h27.52.686,DelayedPartialReportMethod,2024.1.5,None,2024-11-17 23h27.59.487025 +0530,
44,0,44,0,322.89770099986345,,,,,,,,,322.88271479983814,322.89770099986345,323.39803109993227,323.8984252999071,324.89990309998393,324.884057499934,324.88407569983974,324.89990309998393,329.9052339999471,329.88945130002685,"['k', 'n']",1,NNCV,"['k', 'n']",False,"[1.4080364999826998, 1.7173961999360472]","[0.2129424000158906, 0.20440190006047487]",981265,001,2024-11-17_23h27.52.686,DelayedPartialReportMethod,2024.1.5,None,2024-11-17 23h27.59.487025 +0530,
45,0,45,0,329.9052339999471,,,,,,,,,329.890284499852,329.9052339999471,330.4060664998833,330.88978219986893,331.8907498999033,331.8747784998268,331.87479549995624,331.8907498999033,336.896310799988,336.8803726998158,"['r', 'g']",0,RGAI,"['r', 'g']",False,"[0.23261569999158382, 1.5763765999581665]","[0.23932870011776686, 0.2740873999428004]",981265,001,2024-11-17_23h27.52.686,DelayedPartialReportMethod,2024.1.5,None,2024-11-17 23h27.59.487025 +0530,
46,0,46,0,336.896310799988,,,,,,,,,336.88122889981605,336.896310799988,337.396756199887,337.89745549997315,338.8983775000088,338.8828716999851,338.882886499865,338.8983775000088,343.90378389996476,343.8878371999599,"['f', 's']",1,BSRU,"['f', 's']",False,"[0.6471657999791205, 1.0598585000261664]","[0.2607967001385987, 0.22688669990748167]",981265,001,2024-11-17_23h27.52.686,DelayedPartialReportMethod,2024.1.5,None,2024-11-17 23h27.59.487025 +0530,
47,0,47,0,343.90378389996476,,,,,,,,,343.8886555999052,343.90378389996476,344.4044735999778,344.8882706000004,345.8895959998481,345.87323999986984,345.87325889989734,345.8895959998481,350.8950286998879,350.879021700006,"['t', 'y']",1,TYOE,"['t', 'y']",False,"[1.3725296000484377, 1.6534690998960286]","[0.2581217000260949, 0.19451330020092428]",981265,001,2024-11-17_23h27.52.686,DelayedPartialReportMethod,2024.1.5,None,2024-11-17 23h27.59.487025 +0530,
48,0,48,0,350.8950286998879,,,,,,,,,350.88003390002996,350.8950286998879,351.3957717998419,351.8962325998582,352.8971339999698,352.8816225999035,352.88164079980925,352.8971339999698,357.90262899990194,357.8867802999448,"['p', 'o']",0,PQFK,"['p', 'o']",False,"[0.40514069981873035, 0.7804493999574333]","[0.24409260018728673, 0.2660759000573307]",981265,001,2024-11-17_23h27.52.686,DelayedPartialReportMethod,2024.1.5,None,2024-11-17 23h27.59.487025 +0530,
49,0,49,0,357.90262899990194,,,,,,,,,357.88765569985844,357.90262899990194,358.40328839980066,358.9037756999023,359.9055001998786,359.8889511998277,359.8889662998263,359.9055001998786,,364.89399779983796,"['y', 'a']",1,YAMB,"['y', 'a']",False,"[0.44799680006690323, 0.7697185000870377]","[0.22603040002286434, 0.24996659997850657]",981265,001,2024-11-17_23h27.52.686,DelayedPartialReportMethod,2024.1.5,None,2024-11-17 23h27.59.487025 +0530,
50,0,50,0,364.91076769982465,,,,,,,,,364.89498769980855,364.91076769982465,365.41096379980445,365.8948193998076,366.8958850998897,366.8808887999039,366.8809505000245,366.8958850998897,371.90164709999226,371.88585569988936,"['w', 'x', 'z']",2,WWZL,"['w', 'x', 'z']",False,"[0.5255992000456899, 1.4470786000601947, 2.2292140000499785]","[0.26412310008890927, 0.34624670003540814, 0.3553456999361515]",981265,001,2024-11-17_23h27.52.686,DelayedPartialReportMethod,2024.1.5,None,2024-11-17 23h27.59.487025 +0530,
51,0,51,0,371.90164709999226,,,,,,,,,371.8867055999581,371.90164709999226,372.4023009999655,372.90276379999705,373.9037215998396,373.8877657998819,373.8877832000144,373.9037215998396,,378.89264959981665,"['g', 's']",0,GSTV,"['g', 's']",False,"[0.5861049999948591, 0.8742657999973744]","[0.2335755000822246, 0.27334730001166463]",981265,001,2024-11-17_23h27.52.686,DelayedPartialReportMethod,2024.1.5,None,2024-11-17 23h27.59.487025 +0530,
52,0,52,0,378.909207199933,,,,,,,,,378.893582199933,378.909207199933,379.410219399957,379.89391969982535,380.8945877000224,380.87905709980987,380.87907269992866,380.8945877000224,385.9001688999124,385.88452949980274,"['k', 'j']",2,JVFG,"['k', 'j']",False,"[1.1239069001749158, 1.3819671000819653]","[0.21043209987692535, 0.21385870012454689]",981265,001,2024-11-17_23h27.52.686,DelayedPartialReportMethod,2024.1.5,None,2024-11-17 23h27.59.487025 +0530,
53,0,53,0,385.9001688999124,,,,,,,,,385.8856440000236,385.9001688999124,386.4010383998975,386.9014016999863,387.9025928999763,387.8869398999959,387.88695740001276,387.9025928999763,,392.89132109982893,"['t', 'r', 'd', 'j', 'k']",1,TRLT,"['t', 'r', 'd', 'j', 'k']",False,"[0.32209330005571246, 0.6995511001441628, 3.7926713000051677, 3.8499756001401693, 3.8727703001350164]","[0.24318019999191165, 0.24903559987433255, 0.23674000008031726, 0.2412333998363465, 0.19630119996145368]",981265,001,2024-11-17_23h27.52.686,DelayedPartialReportMethod,2024.1.5,None,2024-11-17 23h27.59.487025 +0530,
54,0,54,0,392.90812869998626,,,,,,,,,392.89234149991535,392.90812869998626,393.40862159989774,393.8926023999229,394.8934315999504,394.8781242999248,394.87814489984885,394.8934315999504,399.89891829993576,399.8831482999958,"['l', 'n']",0,LNVV,"['l', 'n']",False,"[0.3102041999809444, 0.7249261999968439]","[0.24777020001783967, 0.23422139999456704]",981265,001,2024-11-17_23h27.52.686,DelayedPartialReportMethod,2024.1.5,None,2024-11-17 23h27.59.487025 +0530,
55,0,55,0,399.89891829993576,,,,,,,,,399.884150599828,399.89891829993576,400.40007299999706,400.8999760998413,401.901071799919,401.88593569980003,401.8859507997986,401.901071799919,,406.8901076000184,"['i', 'm']",2,IMMT,"['i', 'm']",False,"[0.02085949992761016, 0.41536940005607903]","[0.1985864001326263, 0.23990150005556643]",981265,001,2024-11-17_23h27.52.686,DelayedPartialReportMethod,2024.1.5,None,2024-11-17 23h27.59.487025 +0530,
56,0,56,0,406.90704540000297,,,,,,,,,406.89128299988806,406.90704540000297,407.40723579982296,407.89186719991267,408.8925490998663,408.87680139997974,408.8768153998535,408.8925490998663,413.8986159998458,413.8821500998456,"['j', 'r', 'r', 'm']",1,XRIS,"['j', 'r', 'r', 'm']",False,"[1.0982808999251574, 1.7309053000062704, 2.753933700034395, 3.247159200021997]","[0.25278889993205667, 0.2563530998304486, 0.2564983000047505, 0.25408230000175536]",981265,001,2024-11-17_23h27.52.686,DelayedPartialReportMethod,2024.1.5,None,2024-11-17 23h27.59.487025 +0530,
57,0,57,0,413.8986159998458,,,,,,,,,413.8833167999983,413.8986159998458,414.3984448998235,414.89892579987645,415.8998926000204,415.8842242998071,415.8842403998133,415.8998926000204,420.9054639998358,420.88949709990993,"['n', 'm']",0,NWLZ,"['n', 'm']",False,"[0.06919590011239052, 0.3794907000847161]","[0.1850641998462379, 0.1934338000137359]",981265,001,2024-11-17_23h27.52.686,DelayedPartialReportMethod,2024.1.5,None,2024-11-17 23h27.59.487025 +0530,
58,0,58,0,420.9054639998358,,,,,,,,,420.89031509985216,420.9054639998358,421.40635619987734,421.89059820002876,422.8911323999055,422.8749483998399,422.8749644998461,422.8911323999055,427.8973362999968,427.88103329995647,"['l', 'd']",0,DLCC,"['l', 'd']",False,"[0.832450499990955, 2.2827976001426578]","[0.24685490014962852, 0.2454714998602867]",981265,001,2024-11-17_23h27.52.686,DelayedPartialReportMethod,2024.1.5,None,2024-11-17 23h27.59.487025 +0530,
59,0,59,0,427.8973362999968,,,,,,,,,427.8821392999962,427.8973362999968,428.3971738999244,428.8977784998715,429.8988457999658,429.8828672999516,429.8828827999532,429.8988457999658,434.90543899987824,434.88912419998087,"['r', 's']",1,RSXZ,"['r', 's']",False,"[0.5676124999299645, 1.1085466998629272]","[0.2204792001284659, 0.24952509999275208]",981265,001,2024-11-17_23h27.52.686,DelayedPartialReportMethod,2024.1.5,None,2024-11-17 23h27.59.487025 +0530,
60,0,60,0,434.90543899987824,,,,,,,,,434.890032999916,434.90543899987824,435.4055917998776,435.8889398998581,436.88991459994577,436.87420379999094,436.8742185998708,436.88991459994577,441.89534950000234,441.8795037998352,"['t', 'd']",0,TDJI,"['t', 'd']",False,"[1.2320720001589507, 1.6585858000908047]","[0.25097279995679855, 0.3527758000418544]",981265,001,2024-11-17_23h27.52.686,DelayedPartialReportMethod,2024.1.5,None,2024-11-17 23h27.59.487025 +0530,
61,0,61,0,441.89534950000234,,,,,,,,,441.8803438998293,441.89534950000234,442.3959125999827,442.8966760998592,443.89767639990896,443.88218029984273,443.88219519983977,443.89767639990896,448.9030440999195,448.88723320001736,"['b', 'y']",2,BLCA,"['b', 'y']",False,"[0.5047474000602961, 1.003533000126481]","[0.19466840010136366, 0.19470069999806583]",981265,001,2024-11-17_23h27.52.686,DelayedPartialReportMethod,2024.1.5,None,2024-11-17 23h27.59.487025 +0530,
62,0,62,0,448.9030440999195,,,,,,,,,448.8881118998397,448.9030440999195,449.4036393999122,449.90424709999934,450.9055164998863,450.8891780998092,450.88919399981387,450.9055164998863,,455.8942189998925,"['m', 'a']",2,MABD,"['m', 'a']",False,"[0.31886599981226027, 0.545232699951157]","[0.2089714000467211, 0.2410859998781234]",981265,001,2024-11-17_23h27.52.686,DelayedPartialReportMethod,2024.1.5,None,2024-11-17 23h27.59.487025 +0530,
63,0,63,0,455.9105638000183,,,,,,,,,455.8952974998392,455.9105638000183,456.41123649990186,456.89516879990697,457.8961473000236,457.88059249985963,457.8806069998536,457.8961473000236,462.9017435000278,462.88580219983123,"['x', 'r']",0,XRWI,"['x', 'r']",False,"[0.6768350000493228, 1.2153853001073003]","[0.2677537000272423, 0.254226999823004]",981265,001,2024-11-17_23h27.52.686,DelayedPartialReportMethod,2024.1.5,None,2024-11-17 23h27.59.487025 +0530,
64,0,64,0,462.9017435000278,,,,,,,,,462.886796799954,462.9017435000278,463.40248249983415,463.9031491000205,464.9045764999464,464.888146399986,464.8881671000272,464.9045764999464,,469.89299510000274,"['w', 'b']",0,BWPZ,"['w', 'b']",False,"[1.3184527999255806, 1.7234833999536932]","[0.2524568000808358, 0.2319108999799937]",981265,001,2024-11-17_23h27.52.686,DelayedPartialReportMethod,2024.1.5,None,2024-11-17 23h27.59.487025 +0530,
65,0,65,0,469.9088810000103,,,,,,,,,469.89397739991546,469.9088810000103,470.4107854999602,470.89419319992885,471.89500429993495,471.88019219995476,471.8802067998331,471.89500429993495,476.90077849989757,476.88437119987793,"['k', 'd']",1,ZEGK,"['k', 'd']",False,"[2.100035500014201, 2.278530600015074]","[0.21799289993941784, 0.20787280006334186]",981265,001,2024-11-17_23h27.52.686,DelayedPartialReportMethod,2024.1.5,None,2024-11-17 23h27.59.487025 +0530,
66,0,66,0,476.90077849989757,,,,,,,,,476.88518099999055,476.90077849989757,477.40472669992596,477.90170499985106,478.90283979987726,478.88700450002216,478.88702129991725,478.90283979987726,,483.8919027999509,"['t', 'n']",1,TNWX,"['t', 'n']",False,"[0.32765089999884367, 0.5183913998771459]","[0.28606329998001456, 0.1998048999812454]",981265,001,2024-11-17_23h27.52.686,DelayedPartialReportMethod,2024.1.5,None,2024-11-17 23h27.59.487025 +0530,
67,0,67,0,483.9082679999992,,,,,,,,,483.8930899000261,483.9082679999992,484.4091830998659,484.89269210002385,485.8939234998543,485.8786228999961,485.87863829988055,485.8939234998543,490.8993265000172,490.8835872998461,"['q', 'a']",0,QAIQ,"['q', 'a']",False,"[0.6439898998942226, 1.1629528999328613]","[0.24087300011888146, 0.24867239990271628]",981265,001,2024-11-17_23h27.52.686,DelayedPartialReportMethod,2024.1.5,None,2024-11-17 23h27.59.487025 +0530,
68,0,68,0,490.8993265000172,,,,,,,,,490.88444699998945,490.8993265000172,491.3999289998319,491.90036590001546,492.9016704999376,492.8855598999653,492.8855756998528,492.9016704999376,,497.8908047999721,"['v', 'y']",1,VFYU,"['v', 'y']",False,"[1.2960419000592083, 1.6424765000119805]","[0.27967029996216297, 0.20788230001926422]",981265,001,2024-11-17_23h27.52.686,DelayedPartialReportMethod,2024.1.5,None,2024-11-17 23h27.59.487025 +0530,
69,0,69,0,497.9070664998144,,,,,,,,,497.8921415999066,497.9070664998144,498.4076268998906,498.8922337999102,499.8927115998231,499.87680979981087,499.8768234997988,499.8927115998231,504.897878699936,504.88225529994816,"['b', 'm']",1,BMXD,"['b', 'm']",False,"[0.39535630005411804, 0.7756048000883311]","[0.1950872999150306, 0.2648521999362856]",981265,001,2024-11-17_23h27.52.686,DelayedPartialReportMethod,2024.1.5,None,2024-11-17 23h27.59.487025 +0530,
70,0,70,0,504.897878699936,,,,,,,,,504.88327359990217,504.897878699936,505.3986060000025,505.8995115000289,506.90030299988575,506.8850477999076,506.8850624000188,506.90030299988575,,511.889516599942,"['x', 'v']",0,VXTQ,"['x', 'v']",False,"[1.0974522999022156, 1.5134789999574423]","[0.2766487000044435, 0.23215879988856614]",981265,001,2024-11-17_23h27.52.686,DelayedPartialReportMethod,2024.1.5,None,2024-11-17 23h27.59.487025 +0530,
71,0,71,0,511.9060162999667,,,,,,,,,511.8907339000143,511.9060162999667,512.4063550999854,512.8903845997993,513.8916702999268,513.8759414998349,513.875955699943,513.8916702999268,518.896831399994,518.8809592998587,"['w', 'o']",0,WQXZ,"['w', 'o']",False,"[0.009996199980378151, 0.623551799915731]","[0.3212047000415623, 0.2335177999921143]",981265,001,2024-11-17_23h27.52.686,DelayedPartialReportMethod,2024.1.5,None,2024-11-17 23h27.59.487025 +0530,
72,0,72,0,518.896831399994,,,,,,,,,518.8818212999031,518.896831399994,519.3976716999896,519.8982378998771,520.8991321998183,520.8834569000173,520.8834730999079,520.8991321998183,525.9047919998411,525.8885039000306,"['e', 'l', 's']",1,ELTG,"['e', 'l', 's']",False,"[0.784197699977085, 1.1152770998887718, 3.091272799996659]","[0.26321309991180897, 0.22886450006626546, 0.20360219990834594]",981265,001,2024-11-17_23h27.52.686,DelayedPartialReportMethod,2024.1.5,None,2024-11-17 23h27.59.487025 +0530,
73,0,73,0,525.9047919998411,,,,,,,,,525.8893362998497,525.9047919998411,526.4058689998928,526.8890370000154,527.8903049000073,527.8749859998934,527.8750018000137,527.8903049000073,532.8958407999016,532.8797220999841,"['e', 'j']",0,HGJN,"['e', 'j']",False,"[0.80574019998312, 1.1491451000329107]","[0.23438580008223653, 0.15494609996676445]",981265,001,2024-11-17_23h27.52.686,DelayedPartialReportMethod,2024.1.5,None,2024-11-17 23h27.59.487025 +0530,
74,0,74,0,532.8958407999016,,,,,,,,,532.8805408999324,532.8958407999016,533.3960443998221,533.896678699879,534.897931399988,534.8821864998899,534.882200299995,534.897931399988,539.9036158998497,539.8872453998774,"['p', 'u']",0,PUIE,"['p', 'u']",False,"[0.17357850004918873, 0.42406199988909066]","[0.25799359986558557, 0.1849517000373453]",981265,001,2024-11-17_23h27.52.686,DelayedPartialReportMethod,2024.1.5,None,2024-11-17 23h27.59.487025 +0530,
75,0,75,0,539.9036158998497,,,,,,,,,539.8880644999444,539.9036158998497,540.4038976999,540.9046034999192,,541.8898074999452,541.8898242998403,541.9055231998209,,546.8943892999087,"['n', 'x']",2,NXEY,"['n', 'x']",False,"[None, 0.5992648000828922]","[None, 0.2663322000298649]",981265,001,2024-11-17_23h27.52.686,DelayedPartialReportMethod,2024.1.5,None,2024-11-17 23h27.59.487025 +0530,
76,0,76,0,546.9110040999949,,,,,,,,,546.8953936998732,546.9110040999949,547.4117725000251,547.8955041998997,548.8966114998329,548.8806357998401,548.8806499999482,548.8966114998329,553.9023539000191,553.8870019000024,"['y', 'n']",2,YAFP,"['y', 'n']",False,"[0.13765499996952713, 0.5002790000289679]","[0.19416430010460317, 0.1774681000970304]",981265,001,2024-11-17_23h27.52.686,DelayedPartialReportMethod,2024.1.5,None,2024-11-17 23h27.59.487025 +0530,
77,0,77,0,553.9023539000191,,,,,,,,,553.8879260998219,553.9023539000191,554.4031715998426,554.9032313998323,555.904485499952,555.8883793998975,555.8883971998002,555.904485499952,,560.8933267998509,"['t', 'd']",0,TDEX,"['t', 'd']",False,"[0.29235060000792146, 0.7001026999205351]","[0.24976489995606244, 0.3327669999562204]",981265,001,2024-11-17_23h27.52.686,DelayedPartialReportMethod,2024.1.5,None,2024-11-17 23h27.59.487025 +0530,
78,0,78,0,560.9096894999966,,,,,,,,,560.8942458999809,560.9096894999966,561.410305300029,561.8943097998854,562.8958923998289,562.8796329000033,562.8796478998847,562.8958923998289,567.9013554998673,567.8849843998905,"['t', 'x']",1,TXGI,"['t', 'x']",False,"[0.08889040001668036, 0.8334201001562178]","[0.2389411001931876, 0.24650579993613064]",981265,001,2024-11-17_23h27.52.686,DelayedPartialReportMethod,2024.1.5,None,2024-11-17 23h27.59.487025 +0530,
79,0,79,0,567.9013554998673,,,,,,,,,567.8860752999317,567.9013554998673,568.4015783998184,568.9021754998248,569.9032523999922,569.8877464998513,569.8877652999945,569.9032523999922,,574.8921513999812,"['n', 'w']",0,NWEG,"['n', 'w']",False,"[0.33471939992159605, 0.7705715999472886]","[0.20886039990000427, 0.2352138999849558]",981265,001,2024-11-17_23h27.52.686,DelayedPartialReportMethod,2024.1.5,None,2024-11-17 23h27.59.487025 +0530,
80,0,80,0,574.9087520998437,,,,,,,,,574.8933156998828,574.9087520998437,575.4093557999004,575.893167299917,576.8942040000111,576.8782768999226,576.8782948998269,576.8942040000111,581.899705399992,581.8834057999775,"['m', 'e', 'm', 'u']",2,GKJR,"['m', 'e', 'm', 'u']",False,"[1.1778615999501199, 1.5533956000581384, 1.7421216000802815, 2.1720054000616074]","[0.21050030016340315, 0.2545523999724537, 0.177913699997589, 0.1779748999979347]",981265,001,2024-11-17_23h27.52.686,DelayedPartialReportMethod,2024.1.5,None,2024-11-17 23h27.59.487025 +0530,
81,0,81,0,581.899705399992,,,,,,,,,581.8842890998349,581.899705399992,582.400269899983,582.9010552000254,583.9017835999839,583.8867354998365,583.8867514999583,583.9017835999839,,588.8907436998561,"['f', 'x']",0,FMNX,"['f', 'x']",False,"[0.4236298999749124, 1.010045100003481]","[0.2469646001700312, 0.27501649991609156]",981265,001,2024-11-17_23h27.52.686,DelayedPartialReportMethod,2024.1.5,None,2024-11-17 23h27.59.487025 +0530,
82,0,82,0,588.9072755998932,,,,,,,,,588.8919324998278,588.9072755998932,589.4078149998095,589.8917465999257,590.8930344998371,590.8769774998073,590.8769947998226,590.8930344998371,595.8981918999925,595.8828077998478,"['p', 'r']",1,ANPA,"['p', 'r']",False,"[0.5212352001108229, 1.1837570001371205]","[0.3479826000984758, 0.22285919985733926]",981265,001,2024-11-17_23h27.52.686,DelayedPartialReportMethod,2024.1.5,None,2024-11-17 23h27.59.487025 +0530,
83,0,83,0,595.8981918999925,,,,,,,,,595.8839068999514,595.8981918999925,596.3990531000309,596.8995854000095,597.9007672998123,597.8846769998781,597.8846922998782,597.9007672998123,,602.8897898998111,"['n', 'm']",2,MVWJ,"['n', 'm']",False,"[0.7204970000311732, 0.9689228001516312]","[0.1526373999658972, 0.1670699999667704]",981265,001,2024-11-17_23h27.52.686,DelayedPartialReportMethod,2024.1.5,None,2024-11-17 23h27.59.487025 +0530,
84,0,84,0,602.9060962998774,,,,,,,,,602.8909016000107,602.9060962998774,603.406778199831,603.8906663998496,604.8917350999545,604.8758616999257,604.8758767999243,604.8917350999545,609.8969699000008,609.8811529998202,"['y', 'm']",2,YMNW,"['y', 'm']",False,"[0.40912299999035895, 0.8754938000347465]","[0.17857829993590713, 0.2575268999207765]",981265,001,2024-11-17_23h27.52.686,DelayedPartialReportMethod,2024.1.5,None,2024-11-17 23h27.59.487025 +0530,
85,0,85,0,609.8969699000008,,,,,,,,,609.882278899895,609.8969699000008,610.3977146998513,610.8977621998638,611.8994574998505,611.8841265998781,611.8841460000258,611.8994574998505,616.9049169998616,616.8892299998552,"['f', 'g']",1,YGMR,"['f', 'g']",False,"[0.6069893999956548, 0.983003200031817]","[0.24644019990228117, 0.2945404998026788]",981265,001,2024-11-17_23h27.52.686,DelayedPartialReportMethod,2024.1.5,None,2024-11-17 23h27.59.487025 +0530,
86,0,86,0,616.9049169998616,,,,,,,,,616.8900700998493,616.9049169998616,617.4056626998354,617.8895216998644,618.8910146998242,618.874633600004,618.8746515000239,618.8910146998242,623.8961453000084,623.8798787998967,['s'],2,QSZD,['s'],False,[0.3844635998830199],[0.2540327000897378],981265,001,2024-11-17_23h27.52.686,DelayedPartialReportMethod,2024.1.5,None,2024-11-17 23h27.59.487025 +0530,
87,0,87,0,623.8961453000084,,,,,,,,,623.8806910999119,623.8961453000084,624.3964723998215,624.897464599926,625.8981176000088,625.8825137999374,625.8825355998706,625.8981176000088,630.9036484998651,630.8878178999294,"['p', 'd']",0,PDGE,"['p', 'd']",False,"[0.6529806000180542, 1.2112960000522435]","[0.29782199999317527, 0.2664850999135524]",981265,001,2024-11-17_23h27.52.686,DelayedPartialReportMethod,2024.1.5,None,2024-11-17 23h27.59.487025 +0530,
88,0,88,0,630.9036484998651,,,,,,,,,630.8886400999036,630.9036484998651,631.4044770000037,631.8883685998153,632.8892593998462,632.8733769999817,632.8733931998722,632.8892593998462,637.8946360999253,637.8788486998528,['u'],2,NUND,['u'],False,[0.32401710003614426],[0.17092969990335405],981265,001,2024-11-17_23h27.52.686,DelayedPartialReportMethod,2024.1.5,None,2024-11-17 23h27.59.487025 +0530,
89,0,89,0,637.8946360999253,,,,,,,,,637.8796651999,637.8946360999253,638.3954073998611,638.8958957998548,639.8969095998909,639.8811521998141,639.8811714998446,639.8969095998909,644.9025296999607,644.8865970999468,['n'],2,SNZS,['n'],False,[0.8659665000159293],[0.24129780009388924],981265,001,2024-11-17_23h27.52.686,DelayedPartialReportMethod,2024.1.5,None,2024-11-17 23h27.59.487025 +0530,
90,0,90,0,644.9025296999607,,,,,,,,,644.8876705998555,644.9025296999607,645.4032991998829,645.903631299967,646.9045435998123,646.8890320998617,646.8890505000018,646.9045435998123,,651.8936018999666,"['s', 'z']",2,SZTH,"['s', 'z']",False,"[0.2572396001778543, 0.9659479002002627]","[0.1920296000316739, 0.33251549978740513]",981265,001,2024-11-17_23h27.52.686,DelayedPartialReportMethod,2024.1.5,None,2024-11-17 23h27.59.487025 +0530,
91,0,91,0,651.9101058999076,,,,,,,,,651.8946762999985,651.9101058999076,652.4106725999154,652.8948158998974,653.8956881000195,653.8791463000234,653.8791614999063,653.8956881000195,658.901042399928,658.8853350998834,"['t', 'e']",2,TEGT,"['t', 'e']",False,"[0.15669540013186634, 0.49925410002470016]","[0.22535820002667606, 0.22790220007300377]",981265,001,2024-11-17_23h27.52.686,DelayedPartialReportMethod,2024.1.5,None,2024-11-17 23h27.59.487025 +0530,
92,0,92,0,658.901042399928,,,,,,,,,658.8861789000221,658.901042399928,659.4017537999898,659.9023219000082,660.9032950999681,660.8876579999924,660.8876749000046,660.9032950999681,,665.8927121998277,"['g', 'n']",1,ENZN,"['g', 'n']",False,"[1.7379540000110865, 1.9039151000324637]","[0.22285929997451603, 0.17587619996629655]",981265,001,2024-11-17_23h27.52.686,DelayedPartialReportMethod,2024.1.5,None,2024-11-17 23h27.59.487025 +0530,
93,0,93,0,665.9089432999026,,,,,,,,,665.8939978999551,665.9089432999026,666.4096629999112,666.8934084000066,667.894533299841,667.8786873999052,667.8787018998992,667.894533299841,672.8997588998172,672.8846540998202,"['a', 'd', 'q']",2,AQYK,"['a', 'd', 'q']",False,"[0.2794353000354022, 0.6854867001529783, 1.7179809999652207]","[0.2928259999025613, 0.23697520000860095, 0.2622752001043409]",981265,001,2024-11-17_23h27.52.686,DelayedPartialReportMethod,2024.1.5,None,2024-11-17 23h27.59.487025 +0530,
94,0,94,0,672.8997588998172,,,,,,,,,672.8854647998232,672.8997588998172,673.4005185998976,673.9011299998965,674.9022067999467,674.8867014998104,674.8867216999643,674.9022067999467,,679.8910813999828,"['y', 'm']",1,YMEB,"['y', 'm']",False,"[0.23533599986694753, 0.7690801999997348]","[0.21413980005308986, 0.24186880001798272]",981265,001,2024-11-17_23h27.52.686,DelayedPartialReportMethod,2024.1.5,None,2024-11-17 23h27.59.487025 +0530,
95,0,95,0,679.9078102998901,,,,,,,,,679.892757399939,679.9078102998901,680.4083119998686,680.8925428998191,681.893260399811,681.877117899945,681.8771332998294,681.893260399811,686.8987345998175,686.8830114998855,"['n', 'y']",1,NYDR,"['n', 'y']",False,"[0.08037499990314245, 0.5172887998633087]","[0.1870178000535816, 0.18188140005804598]",981265,001,2024-11-17_23h27.52.686,DelayedPartialReportMethod,2024.1.5,None,2024-11-17 23h27.59.487025 +0530,
96,0,96,0,686.8987345998175,,,,,,,,,686.883909399854,686.8987345998175,687.3993398998864,687.8999354999978,688.9008498999756,688.8849647999741,688.8849807998631,688.9008498999756,,693.8898445998784,"['v', 'l']",1,VLDV,"['v', 'l']",False,"[0.5586204999126494, 0.7429939999710768]","[0.24306229990907013, 0.2390542000066489]",981265,001,2024-11-17_23h27.52.686,DelayedPartialReportMethod,2024.1.5,None,2024-11-17 23h27.59.487025 +0530,
97,0,97,0,693.9063981999643,,,,,,,,,693.8907743999735,693.9063981999643,694.4072473999113,694.8903889998328,695.8919977999758,695.8764580998104,695.8764794999734,695.8919977999758,700.8973349998705,700.8814864000306,"['y', 'n']",0,UNMQ,"['y', 'n']",False,"[2.9497320000082254, 3.358665999956429]","[0.20169330015778542, 0.16430260008201003]",981265,001,2024-11-17_23h27.52.686,DelayedPartialReportMethod,2024.1.5,None,2024-11-17 23h27.59.487025 +0530,
98,0,98,0,700.8973349998705,,,,,,,,,700.8826144998893,700.8973349998705,701.3984008999541,701.8986735998187,702.8997938998509,702.8841810999438,702.8842014998663,702.8997938998509,707.9057185000274,707.8890893999487,"['t', 'i']",0,TIPM,"['t', 'i']",False,"[1.1117227000650018, 1.3154037001077086]","[0.2578811999410391, 0.20489759999327362]",981265,001,2024-11-17_23h27.52.686,DelayedPartialReportMethod,2024.1.5,None,2024-11-17 23h27.59.487025 +0530,
99,0,99,0,707.9057185000274,,,,,,,,,707.8900613000151,707.9057185000274,708.4063160999212,708.8897647999693,709.8904700998683,709.8749654998537,709.8749814999755,709.8904700998683,714.8958911998197,714.8791531999595,"['w', 'm', 'm']",0,WMLG,"['w', 'm', 'm']",False,"[0.10426260018721223, 0.6702199000865221, 2.9889515000395477]","[0.25093779992312193, 0.22665580012835562, 0.08230930007994175]",981265,001,2024-11-17_23h27.52.686,DelayedPartialReportMethod,2024.1.5,None,2024-11-17 23h27.59.487025 +0530,
