trials.thisRepN,trials.thisTrialN,trials.thisN,trials.thisIndex,thisRow.t,notes,introduction.started,text.started,key_resp.started,introduction.stopped,key_resp.keys,key_resp.rt,key_resp.duration,trial.started,letter_grid.started,trial.stopped,response_routine.started,response.started,response_routine.stopped,response.keys,response.rt,response.duration,participant,session,date,expName,psychopyVersion,frameRate,expStart,
,,,,,,0.0032746000215411186,0.0209927000105381,0.0209927000105381,13.4116772999987,space,13.37268829997629,None,,,,,,,,,,438452,001,2024-11-17_13h41.02.717,WholeReportMethod,2024.1.5,None,2024-11-17 13h41.09.510689 +0530,
0,0,0,0,13.434849699959159,,,,,,,,,13.41549040004611,13.434849699959159,13.920745800016448,13.92077840003185,13.93668229994364,18.925065600080416,None,,,438452,001,2024-11-17_13h41.02.717,WholeReportMethod,2024.1.5,None,2024-11-17 13h41.09.510689 +0530,
1,0,1,0,18.9425554999616,,,,,,,,,18.927960800006986,18.9425554999616,19.42654490005225,19.426569200120866,19.442870900034904,24.41492630005814,None,,,438452,001,2024-11-17_13h41.02.717,WholeReportMethod,2024.1.5,None,2024-11-17 13h41.09.510689 +0530,
2,0,2,0,24.432287000119686,,,,,,,,,24.416715699946508,24.432287000119686,24.915769800078124,24.91578739997931,24.932192499982193,29.921102300053462,"['x', 'd', 'g', 'o']","[2.9246277001220733, 3.2214799001812935, 3.8581150001846254, 4.26390860020183]","[0.16993029997684062, 0.1745909999590367, 0.23747669998556376, 0.23731819982640445]",438452,001,2024-11-17_13h41.02.717,WholeReportMethod,2024.1.5,None,2024-11-17 13h41.09.510689 +0530,
3,0,3,0,30.03063750010915,,,,,,,,,29.923849900020286,30.03063750010915,30.42155980016105,30.42159130005166,30.43887250008993,35.42770990007557,"['n', 'w', 'n', 'r']","[1.3027929000090808, 1.6248598999809474, 2.324207399971783, 2.802861499832943]","[0.16718779993243515, 0.18463149992749095, 0.16463749995455146, 0.20786059997044504]",438452,001,2024-11-17_13h41.02.717,WholeReportMethod,2024.1.5,None,2024-11-17 13h41.09.510689 +0530,
4,0,4,0,35.44436320010573,,,,,,,,,35.42935150000267,35.44436320010573,35.92740399995819,35.92743130004965,35.9445899000857,40.91638830001466,"['o', 'd', 'q']","[1.4453477000351995, 2.1999456000048667, 2.8751548000145704]","[0.18054500012658536, 0.2508245001081377, 0.21177280019037426]",438452,001,2024-11-17_13h41.02.717,WholeReportMethod,2024.1.5,None,2024-11-17 13h41.09.510689 +0530,
5,0,5,0,40.933528000023216,,,,,,,,,40.91800710000098,40.933528000023216,41.41664860001765,41.41666999994777,41.43375730002299,46.42235070001334,"['i', 'w', 'c', 'o']","[1.562681799987331, 1.8228803998790681, 2.5318820998072624, 2.987840399844572]","[0.18862309982068837, 0.1893752000760287, 0.20891370018944144, 0.18428490008227527]",438452,001,2024-11-17_13h41.02.717,WholeReportMethod,2024.1.5,None,2024-11-17 13h41.09.510689 +0530,
6,0,6,0,46.43949280004017,,,,,,,,,46.42515969998203,46.43949280004017,46.92341880011372,46.923442400060594,46.93983640009537,51.91264240001328,"['f', 'e', 'k', 'g']","[1.5366649001371115, 2.1375890001654625, 2.3986278001684695, 3.673986200010404]","[0.21647690003737807, 0.17986059980466962, 0.2162683999631554, 0.18694450007751584]",438452,001,2024-11-17_13h41.02.717,WholeReportMethod,2024.1.5,None,2024-11-17 13h41.09.510689 +0530,
7,0,7,0,51.92945870012045,,,,,,,,,51.91467329999432,51.92945870012045,52.41292780009098,52.41296740015969,52.42853510007262,57.41837300010957,"['o', 'u', 'z']","[1.0485902999062091, 1.343368100002408, 2.301033199997619]","[0.25711980019696057, 0.18296299991197884, 0.22626950009725988]",438452,001,2024-11-17_13h41.02.717,WholeReportMethod,2024.1.5,None,2024-11-17 13h41.09.510689 +0530,
8,0,8,0,57.43458560016006,,,,,,,,,57.419736000010744,57.43458560016006,57.91871610004455,57.91874450002797,57.93525550002232,62.92413690011017,"['a', 'l', 'm', 'o', 'c']","[1.0274534998461604, 1.2938279998488724, 1.4443227997981012, 1.8697692998684943, 2.171075199963525]","[0.17796480003744364, 0.1598181000445038, 0.21432460006326437, 0.21555660013109446, 0.25034349993802607]",438452,001,2024-11-17_13h41.02.717,WholeReportMethod,2024.1.5,None,2024-11-17 13h41.09.510689 +0530,
9,0,9,0,62.94088210002519,,,,,,,,,62.92558020004071,62.94088210002519,63.424707900034264,63.42473160009831,63.440839499933645,68.41366189997643,"['h', 'e', 'q', 'l']","[1.879385899985209, 2.2575156001839787, 2.8262495000381023, 3.7262852999847382]","[0.1806250000372529, 0.2508204998448491, 0.20691710012033582, 0.2440612001810223]",438452,001,2024-11-17_13h41.02.717,WholeReportMethod,2024.1.5,None,2024-11-17 13h41.09.510689 +0530,
10,0,10,0,68.43015830009244,,,,,,,,,68.41589540010318,68.43015830009244,68.91410779999569,68.91413739998825,68.93006279994734,73.9192588001024,"['a', 'v', 'm', 'n']","[1.8041465999558568, 2.103883799863979, 2.361464799847454, 2.6501863000448793]","[0.21912720007821918, 0.18388440017588437, 0.18859020015224814, 0.1483214998152107]",438452,001,2024-11-17_13h41.02.717,WholeReportMethod,2024.1.5,None,2024-11-17 13h41.09.510689 +0530,
11,0,11,0,73.93605930008925,,,,,,,,,73.9205255000852,73.93605930008925,74.42096909997053,74.420996400062,74.43673900002614,79.42573609994724,"['o', 'j', 'q', 'o']","[1.0338455999735743, 1.7128435999620706, 2.7149302000179887, 3.161997300107032]","[0.18738989997655153, 0.1774096000008285, 0.1908633999992162, 0.24470849987119436]",438452,001,2024-11-17_13h41.02.717,WholeReportMethod,2024.1.5,None,2024-11-17 13h41.09.510689 +0530,
12,0,12,0,79.44246200006455,,,,,,,,,79.42825009999797,79.44246200006455,79.92587530007586,79.92589420010336,79.94291050010361,84.915031200042,"['p', 'x', 'g', 'i']","[1.046962199965492, 1.795353899942711, 2.7596817000303417, 3.0414620998781174]","[0.223511700052768, 0.22054279991425574, 0.19860120001249015, 0.15794810000807047]",438452,001,2024-11-17_13h41.02.717,WholeReportMethod,2024.1.5,None,2024-11-17 13h41.09.510689 +0530,
13,0,13,0,84.93167870002799,,,,,,,,,84.91634260001592,84.93167870002799,85.41500660008751,85.41502730012871,85.43213460012339,90.4208937000949,"['y', 'o', 'j', 'd']","[1.1825957000255585, 1.479443000163883, 2.3073546001687646, 2.5717436000704765]","[0.2024801999796182, 0.3353315000422299, 0.2006275998428464, 0.1958711000625044]",438452,001,2024-11-17_13h41.02.717,WholeReportMethod,2024.1.5,None,2024-11-17 13h41.09.510689 +0530,
14,0,14,0,90.4381643999368,,,,,,,,,90.42323690000921,90.4381643999368,90.92337580001913,90.92341200006194,90.93856310006231,95.92791750002652,"['l', 'm', 'r', 's', 'e']","[1.2667326000519097, 1.3089870000258088, 1.696817500051111, 2.035536500159651, 2.3738392000086606]","[0.12262100004591048, 0.23887529992498457, 0.20746619999408722, 0.20339299994520843, 0.19295589998364449]",438452,001,2024-11-17_13h41.02.717,WholeReportMethod,2024.1.5,None,2024-11-17 13h41.09.510689 +0530,
15,0,15,0,95.94726740010083,,,,,,,,,95.93114460003562,95.94726740010083,96.42772460007109,96.42830500006676,96.44492670008913,101.41674330015667,"['o', 'n', 'c', 'f']","[1.2589946000371128, 1.979109900072217, 2.265889700036496, 2.799064500024542]","[0.24792589992284775, 0.18723529996350408, 0.24980879994109273, 0.21766690001823008]",438452,001,2024-11-17_13h41.02.717,WholeReportMethod,2024.1.5,None,2024-11-17 13h41.09.510689 +0530,
16,0,16,0,101.43403570004739,,,,,,,,,101.41927610011771,101.43403570004739,101.91743879998103,101.91747700003907,101.93428499996662,106.92344400007278,"['m', 'o', 'w', 'z']","[1.0008853999897838, 1.8151332999113947, 2.20873329997994, 2.897950999904424]","[0.20770939998328686, 0.18830170016735792, 0.1704555000178516, 0.2313677000347525]",438452,001,2024-11-17_13h41.02.717,WholeReportMethod,2024.1.5,None,2024-11-17 13h41.09.510689 +0530,
17,0,17,0,106.94218820007518,,,,,,,,,106.9267836001236,106.94218820007518,107.42420180002227,107.42424730001949,107.43981310003437,112.4124124001246,"['l', 's', 'z', 't']","[1.2508314999286085, 1.5087679999414831, 2.240975599968806, 2.8548602999653667]","[0.190801199991256, 0.20086789992637932, 0.2208581999875605, 0.20696539990603924]",438452,001,2024-11-17_13h41.02.717,WholeReportMethod,2024.1.5,None,2024-11-17 13h41.09.510689 +0530,
18,0,18,0,112.43114090012386,,,,,,,,,112.41564560006373,112.43114090012386,112.91275510005653,112.91279440000653,112.92897040001117,117.91859650006518,"['r', 'p', 'o', 'y']","[1.5178660999517888, 1.8292570000048727, 2.1420240998268127, 2.5344555999618024]","[0.21322819986380637, 0.20865989988669753, 0.2977088000625372, 0.20751399989239872]",438452,001,2024-11-17_13h41.02.717,WholeReportMethod,2024.1.5,None,2024-11-17 13h41.09.510689 +0530,
19,0,19,0,117.93619020003825,,,,,,,,,117.92121529998258,117.93619020003825,118.41868400014937,118.41873309994116,118.43586269998923,123.42426789994352,"['z', 'h', 'r', 'a']","[1.419683299958706, 1.7347357000689954, 2.1221473000478, 2.4519374000374228]","[0.18706119991838932, 0.21204869984649122, 0.20386899984441698, 0.24092100001871586]",438452,001,2024-11-17_13h41.02.717,WholeReportMethod,2024.1.5,None,2024-11-17 13h41.09.510689 +0530,
20,0,20,0,123.44416890013963,,,,,,,,,123.42801050003618,123.44416890013963,123.92424740013666,123.92428379994817,123.94170240010135,128.9141756000463,"['l', 'a', 'u', 'y']","[1.3779448000714183, 1.7238048000726849, 2.222182400058955, 2.509292999980971]","[0.22065240005031228, 0.2152007999829948, 0.19577079988084733, 0.1598376000765711]",438452,001,2024-11-17_13h41.02.717,WholeReportMethod,2024.1.5,None,2024-11-17 13h41.09.510689 +0530,
21,0,21,0,128.9320430001244,,,,,,,,,128.9172881001141,128.9320430001244,129.41445409995504,129.41449120012112,129.4304738000501,134.42011129995808,"['s', 'p', 'i', 'f']","[0.9567100999411196, 1.270196400117129, 1.6377725000493228, 2.089022499974817]","[0.18995680008083582, 0.4158590999431908, 0.17144239996559918, 0.2242423000279814]",438452,001,2024-11-17_13h41.02.717,WholeReportMethod,2024.1.5,None,2024-11-17 13h41.09.510689 +0530,
22,0,22,0,134.43955160002224,,,,,,,,,134.42270769993775,134.43955160002224,134.92021639994346,134.9202515000943,134.9370355999563,139.92576200002804,"['u', 'z', 'q']","[1.1367496000602841, 2.6064198000822216, 4.3402999001555145]","[0.19220930011942983, 0.23298539989627898, 0.26159040001221]",438452,001,2024-11-17_13h41.02.717,WholeReportMethod,2024.1.5,None,2024-11-17 13h41.09.510689 +0530,
23,0,23,0,139.94618310010992,,,,,,,,,139.929847399937,139.94618310010992,140.426485999953,140.42650810000487,140.44290559994988,145.41544210002758,"['a', 'd', 'c', 'k']","[1.1265793000347912, 1.5837396001443267, 1.9717912001069635, 2.1152481001336128]","[0.22189040016382933, 0.2388625000603497, 0.21605610009282827, 0.2052525000181049]",438452,001,2024-11-17_13h41.02.717,WholeReportMethod,2024.1.5,None,2024-11-17 13h41.09.510689 +0530,
24,0,24,0,145.4334965001326,,,,,,,,,145.41942099994048,145.4334965001326,145.9165992999915,145.91663430002518,145.9326299999375,150.92159459996037,"['a', 'u', 'x', 'y']","[1.0525082000531256, 1.2871985000092536, 2.114534700056538, 2.6075613000430167]","[0.19920330005697906, 0.17481180001050234, 0.28708430007100105, 0.20162070007063448]",438452,001,2024-11-17_13h41.02.717,WholeReportMethod,2024.1.5,None,2024-11-17 13h41.09.510689 +0530,
25,0,25,0,150.93931089993566,,,,,,,,,150.92494000005536,150.93931089993566,151.4215721001383,151.4215959000867,151.43863310012966,156.4279517000541,"['q', 'c', 'c', 'b']","[1.5007578998338431, 2.3977301998529583, 2.6487562998663634, 2.9824262999463826]","[0.20726769999600947, 0.1779068000614643, 0.20392740005627275, 0.15637649991549551]",438452,001,2024-11-17_13h41.02.717,WholeReportMethod,2024.1.5,None,2024-11-17 13h41.09.510689 +0530,
26,0,26,0,156.44517430011183,,,,,,,,,156.4301897000987,156.44517430011183,156.9285349000711,156.9285716000013,156.94501130003482,161.9168348000385,"['m', 'g', 'o', 'i']","[1.3968227000441402, 2.157145099947229, 2.4015655000694096, 2.783187499968335]","[0.197649999987334, 0.19668009993620217, 0.41831939993426204, 0.14484059996902943]",438452,001,2024-11-17_13h41.02.717,WholeReportMethod,2024.1.5,None,2024-11-17 13h41.09.510689 +0530,
27,0,27,0,161.93530230014585,,,,,,,,,161.9201855000574,161.93530230014585,162.41791360010393,162.41794960014522,162.43409739993513,167.42262129997835,"['u', 'i', 'p', 'f']","[0.8740501999855042, 1.070940300123766, 1.337282600114122, 2.0076695000752807]","[0.23455960000865161, 0.2250023998785764, 0.20900939987041056, 0.17046869988553226]",438452,001,2024-11-17_13h41.02.717,WholeReportMethod,2024.1.5,None,2024-11-17 13h41.09.510689 +0530,
28,0,28,0,167.43910710001364,,,,,,,,,167.42405340005644,167.43910710001364,167.92326029995456,167.92328360001557,167.94012439996004,172.9120706000831,"['l', 'm', 'g', 'u', 'f']","[1.3090350998099893, 1.6721183999907225, 2.1346100999508053, 2.356407499872148, 2.794781500007957]","[0.2878471000585705, 0.20112790004350245, 0.18731150007806718, 0.16238370002247393, 0.17757719988003373]",438452,001,2024-11-17_13h41.02.717,WholeReportMethod,2024.1.5,None,2024-11-17 13h41.09.510689 +0530,
29,0,29,0,172.92949260002933,,,,,,,,,172.9152798000723,172.92949260002933,173.41361350007355,173.4136429000646,173.42914310004562,178.41840850003064,"['q', 'q', 'd', 's']","[1.6957801999524236, 1.9692305999342352, 2.4074412998743355, 2.788624400040135]","[0.15560990013182163, 0.19815630000084639, 0.20379759999923408, 0.22756000002846122]",438452,001,2024-11-17_13h41.02.717,WholeReportMethod,2024.1.5,None,2024-11-17 13h41.09.510689 +0530,
30,0,30,0,178.43789050006308,,,,,,,,,178.42179240006953,178.43789050006308,178.91902359994128,178.91905790008605,178.93603450013325,183.9248418000061,"['m', 'e', 'd', 'f', 'k']","[1.3847994999960065, 1.6761847001034766, 2.047412500018254, 3.305484800133854, 4.042359800077975]","[0.21367860003374517, 0.18305890006013215, 0.17856180015951395, 0.19434339995495975, 0.14145019999705255]",438452,001,2024-11-17_13h41.02.717,WholeReportMethod,2024.1.5,None,2024-11-17 13h41.09.510689 +0530,
31,0,31,0,183.94317950005643,,,,,,,,,183.9280193001032,183.94317950005643,184.42612090008333,184.42615910014138,184.44135019998066,189.41362290014513,"['f', 'i', 'd', 'b', 'y', 'u']","[1.8759802000131458, 2.177804799983278, 2.4045859000179917, 2.8224690998904407, 3.5507406999822706, 3.557605299865827]","[0.21331259980797768, 0.15168419992551208, 0.21865199995227158, 0.13857139996252954, 0.21227989997714758, 0.03934440016746521]",438452,001,2024-11-17_13h41.02.717,WholeReportMethod,2024.1.5,None,2024-11-17 13h41.09.510689 +0530,
32,0,32,0,189.4304655001033,,,,,,,,,189.41641029994935,189.4304655001033,189.9153955001384,189.91542560001835,189.93080840003677,194.91954739997163,"['w', 'v', 'c', 'n', 'o']","[1.0267167000565678, 1.688313900027424, 2.5609862999990582, 3.017798100132495, 3.5338485001120716]","[0.2002602000720799, 0.20187469990924, 0.21779390005394816, 0.1523895999416709, 0.21936529991216958]",438452,001,2024-11-17_13h41.02.717,WholeReportMethod,2024.1.5,None,2024-11-17 13h41.09.510689 +0530,
33,0,33,0,194.93561589997262,,,,,,,,,194.9221053000074,194.93561589997262,195.42136309994385,195.42140110000037,195.43722259998322,200.42610609997064,"['g', 'q', 'w', 'd']","[1.399297600146383, 1.7417433001101017, 2.40445140004158, 2.833320500096306]","[0.312292099930346, 0.2563123998697847, 0.24994700006209314, 0.24388929991982877]",438452,001,2024-11-17_13h41.02.717,WholeReportMethod,2024.1.5,None,2024-11-17 13h41.09.510689 +0530,
34,0,34,0,200.44416539999656,,,,,,,,,200.42886670003645,200.44416539999656,200.9267541000154,200.92680989997461,200.9430452999659,205.9160617000889,"['k', 'n', 'o', 'q']","[1.0206593999173492, 1.3706711998675019, 1.8496226000133902, 2.2634866998996586]","[0.16515489993616939, 0.18282320001162589, 0.21565659996122122, 0.23679340002126992]",438452,001,2024-11-17_13h41.02.717,WholeReportMethod,2024.1.5,None,2024-11-17 13h41.09.510689 +0530,
35,0,35,0,205.9361805000808,,,,,,,,,205.919380400097,205.9361805000808,206.41623209998943,206.41631869995035,206.4329027000349,211.42105130013078,"['v', 'i', 'v', 't']","[0.9326063999906182, 1.2573146999347955, 1.5642407999839634, 2.0574682999867946]","[0.20722689991816878, 0.10648590000346303, 0.20683309994637966, 0.19811840006150305]",438452,001,2024-11-17_13h41.02.717,WholeReportMethod,2024.1.5,None,2024-11-17 13h41.09.510689 +0530,
36,0,36,0,211.4407918001525,,,,,,,,,211.42549740010872,211.4407918001525,211.92226690007374,211.92232450004667,211.93832720001228,216.92693710001186,"['n', 'm', 'l', 'r']","[0.9273272999562323, 1.1825663999188691, 1.5374996999744326, 2.027849899837747]","[0.11942530004307628, 0.1473459000699222, 0.22455070004798472, 0.21968600014224648]",438452,001,2024-11-17_13h41.02.717,WholeReportMethod,2024.1.5,None,2024-11-17 13h41.09.510689 +0530,
37,0,37,0,216.9433718000073,,,,,,,,,216.92916609998792,216.9433718000073,217.4288270000834,217.42886210000142,217.44457749999128,222.41681420011446,"['x', 'd', 'l', 'j']","[1.2116361998487264, 1.6978711998090148, 2.220665699802339, 2.9163526999764144]","[0.2561946001369506, 0.22465110011398792, 0.2201284000184387, 0.22044079983606935]",438452,001,2024-11-17_13h41.02.717,WholeReportMethod,2024.1.5,None,2024-11-17 13h41.09.510689 +0530,
38,0,38,0,222.43423649994656,,,,,,,,,222.41958969994448,222.43423649994656,222.91736200009473,222.9174027000554,222.9341033999808,227.92191240005195,"['g', 'u', 'x', 'b']","[0.9492898001335561, 1.2122774999588728, 1.80903510004282, 2.196100200060755]","[0.2063885999377817, 0.13887100014835596, 0.273980800062418, 0.1416289999615401]",438452,001,2024-11-17_13h41.02.717,WholeReportMethod,2024.1.5,None,2024-11-17 13h41.09.510689 +0530,
39,0,39,0,227.93905739998445,,,,,,,,,227.92415380012244,227.93905739998445,228.4235135000199,228.42355270008557,228.44056340004317,233.41229460015893,"['p', 'n', 'b', 'a', 'q']","[1.9647015000227839, 2.514875399880111, 2.8015093998983502, 3.121320500038564, 4.228300200076774]","[0.2270706999115646, 0.16822710004635155, 0.14401960000395775, 0.23115090001374483, 0.26647319993935525]",438452,001,2024-11-17_13h41.02.717,WholeReportMethod,2024.1.5,None,2024-11-17 13h41.09.510689 +0530,
40,0,40,0,233.4305641001556,,,,,,,,,233.4151453000959,233.4305641001556,233.91301449993625,233.91304789995775,233.92831080011092,238.9185165001545,"['a', 'j', 't', 'f', 'b', 'x']","[1.2622542998287827, 1.9066581998486072, 2.3498623999767005, 2.88524129986763, 3.385541999945417, 4.320542899891734]","[0.2594175001140684, 0.17704740003682673, 0.18140350002795458, 0.18587579997256398, 0.1422113999724388, 0.22391659999266267]",438452,001,2024-11-17_13h41.02.717,WholeReportMethod,2024.1.5,None,2024-11-17 13h41.09.510689 +0530,
41,0,41,0,238.9362383999396,,,,,,,,,238.92185030016117,238.9362383999396,239.4192751001101,239.4193111001514,239.43548960005865,244.4240359000396,"['q', 'y', 'b', 'v', 'o']","[1.5018410000484437, 2.036094200098887, 2.598010800080374, 3.740670399973169, 4.408981200074777]","[0.2301793999504298, 0.1494052999187261, 0.1473743999376893, 0.2121573002077639, 0.23781049996614456]",438452,001,2024-11-17_13h41.02.717,WholeReportMethod,2024.1.5,None,2024-11-17 13h41.09.510689 +0530,
42,0,42,0,244.4424620999489,,,,,,,,,244.4271490999963,244.4424620999489,244.92517599998973,244.92520079994574,244.94217119994573,249.91416530008428,"['l', 't', 'h', 'd']","[1.1360108000226319, 1.6518222000449896, 1.8664557000156492, 2.1483800001442432]","[0.19766049995087087, 0.1851546000689268, 0.11820510006509721, 0.16034169984050095]",438452,001,2024-11-17_13h41.02.717,WholeReportMethod,2024.1.5,None,2024-11-17 13h41.09.510689 +0530,
43,0,43,0,249.93329409998842,,,,,,,,,249.91734399995767,249.93329409998842,250.41418129997328,250.41491229995154,250.43262180010788,255.41980640008114,"['m', 'u', 'h', 'b']","[1.329664999851957, 1.5989149999804795, 1.8616402999032289, 2.1984325000084937]","[0.14152770000509918, 0.10430049989372492, 0.11244269995950162, 0.10884259990416467]",438452,001,2024-11-17_13h41.02.717,WholeReportMethod,2024.1.5,None,2024-11-17 13h41.09.510689 +0530,
44,0,44,0,255.44021410006098,,,,,,,,,255.4241865000222,255.44021410006098,255.92093080002815,255.92095930012874,255.93685170006938,260.926099000033,"['s', 'w', 'u', 'j', 'x']","[1.089042800012976, 1.4675938000436872, 1.89539479999803, 2.3235373001080006, 3.3544369000010192]","[0.16835160017944872, 0.20833420008420944, 0.17197020002640784, 0.16409149998798966, 0.26612860010936856]",438452,001,2024-11-17_13h41.02.717,WholeReportMethod,2024.1.5,None,2024-11-17 13h41.09.510689 +0530,
45,0,45,0,260.94548550015315,,,,,,,,,260.9286605999805,260.94548550015315,261.42645100015216,261.42648739996366,261.44298700010404,266.4159295000136,"['z', 'i', 'y', 's']","[1.3570059000048786, 2.044687099987641, 2.3070567999966443, 2.579937200061977]","[0.32826539990492165, 0.2195143001154065, 0.17169889993965626, 0.18162199994549155]",438452,001,2024-11-17_13h41.02.717,WholeReportMethod,2024.1.5,None,2024-11-17 13h41.09.510689 +0530,
46,0,46,0,266.4347057000268,,,,,,,,,266.41847130004317,266.4347057000268,266.9157418999821,266.9164257000666,266.93308550002985,271.9212808001321,"['h', 'q', 'w', 'a', 'q']","[0.9737062999047339, 1.334487299900502, 2.85862739989534, 3.2321051999460906, 3.853755099931732]","[0.1681594999972731, 0.12574429996311665, 0.2072018999606371, 0.24044810002669692, 0.22241749987006187]",438452,001,2024-11-17_13h41.02.717,WholeReportMethod,2024.1.5,None,2024-11-17 13h41.09.510689 +0530,
47,0,47,0,271.93812520010397,,,,,,,,,271.92389139998704,271.93812520010397,272.42241380014457,272.4224481000565,272.4382293999661,277.4276670999825,"['c', 'a', 'p', 'd', 'l']","[0.945475900080055, 1.2375169999431819, 1.5510170999914408, 1.927956199971959, 4.577736099949107]","[0.2240748000331223, 0.21763530001044273, 0.22635339992120862, 0.21088650007732213, 0.20697690011002123]",438452,001,2024-11-17_13h41.02.717,WholeReportMethod,2024.1.5,None,2024-11-17 13h41.09.510689 +0530,
48,0,48,0,277.44549660012126,,,,,,,,,277.43072880012915,277.44549660012126,277.9273280999623,277.92735110013746,277.94429549993947,282.9171662000008,"['q', 'q', 'z', 'x']","[2.450041899923235, 2.6862463001161814, 3.2957756998948753, 3.6269588998984545]","[0.16958050010725856, 0.18448169995099306, 0.2151963000651449, 0.20444690017029643]",438452,001,2024-11-17_13h41.02.717,WholeReportMethod,2024.1.5,None,2024-11-17 13h41.09.510689 +0530,
49,0,49,0,282.93457109993324,,,,,,,,,282.92006350005977,282.93457109993324,283.41740130004473,283.4174403999932,283.4337596001569,288.42228209995665,"['z', 'q', 'x', 's']","[1.2019786001183093, 3.132705899886787, 3.8301909998990595, 4.224570400081575]","[0.24715489987283945, 0.22292760014533997, 0.20136390021070838, 0.26687189983204007]",438452,001,2024-11-17_13h41.02.717,WholeReportMethod,2024.1.5,None,2024-11-17 13h41.09.510689 +0530,
50,0,50,0,288.4393990000244,,,,,,,,,288.4238043001387,288.4393990000244,288.9233904001303,288.9234229000285,288.9395906000864,293.91309550008737,"['a', 'c', 'm', 'g', 's']","[0.8411244000308216, 1.9276098001282662, 2.112568899989128, 2.749435900012031, 2.956135699991137]","[0.13899990008212626, 0.2025379000697285, 0.15913090016692877, 0.20333060016855597, 0.18932330003008246]",438452,001,2024-11-17_13h41.02.717,WholeReportMethod,2024.1.5,None,2024-11-17 13h41.09.510689 +0530,
51,0,51,0,293.93039890006185,,,,,,,,,293.91614540014416,293.93039890006185,294.413108299952,294.41314650001004,294.4289625999518,299.41826410009526,"['u', 'r', 'k', 'u']","[0.8628944999072701, 1.2420836000237614, 1.6972520998679101, 2.2853214000351727]","[0.17867600009776652, 0.19645219994708896, 0.15648800018243492, 0.15388179989531636]",438452,001,2024-11-17_13h41.02.717,WholeReportMethod,2024.1.5,None,2024-11-17 13h41.09.510689 +0530,
52,0,52,0,299.4346062000841,,,,,,,,,299.42024080012925,299.4346062000841,299.91911250003614,299.91915119998157,299.9362071000505,304.924295600038,"['o', 'o', 'm', 'v', 'c']","[0.8368092998862267, 1.069377299863845, 1.5157814000267535, 1.8837687999475747, 3.408759000012651]","[0.15186640014871955, 0.17338789999485016, 0.1630459998268634, 0.1750902000349015, 0.18495229980908334]",438452,001,2024-11-17_13h41.02.717,WholeReportMethod,2024.1.5,None,2024-11-17 13h41.09.510689 +0530,
53,0,53,0,304.9409060999751,,,,,,,,,304.9270389000885,304.9409060999751,305.4265819999855,305.4266214000527,305.4412414999679,310.4143277001567,"['k', 'b', 'j', 'a']","[1.1545621000695974, 1.4722839000169188, 1.8209407001268119, 2.029185099992901]","[0.13504859991371632, 0.11219929996877909, 0.13253359985537827, 0.19063129997812212]",438452,001,2024-11-17_13h41.02.717,WholeReportMethod,2024.1.5,None,2024-11-17 13h41.09.510689 +0530,
54,0,54,0,310.4316172001418,,,,,,,,,310.4181594999973,310.4316172001418,310.9147855001502,310.91483370005153,310.9311454000417,315.9202068001032,"['b', 'h', 't', 'u']","[1.121228499803692, 1.3652116998564452, 2.1576149999164045, 2.3591454999987036]","[0.11499779997393489, 0.11256420006975532, 0.21432729996740818, 0.12162209977395833]",438452,001,2024-11-17_13h41.02.717,WholeReportMethod,2024.1.5,None,2024-11-17 13h41.09.510689 +0530,
55,0,55,0,315.9360756999813,,,,,,,,,315.9228507000953,315.9360756999813,316.42110710009,316.4211518999655,316.4376889001578,321.4263435001485,"['d', 'g', 'l', 'w', 'v', 't']","[1.8291557000484318, 1.9043384999968112, 2.148282099980861, 2.5616113001015037, 3.2869096000213176, 3.621137599926442]","[0.08597999997437, 0.19483470008708537, 0.18021850008517504, 0.2079721000045538, 0.19648899999447167, 0.2051295000128448]",438452,001,2024-11-17_13h41.02.717,WholeReportMethod,2024.1.5,None,2024-11-17 13h41.09.510689 +0530,
56,0,56,0,321.4451818000525,,,,,,,,,321.4295338001102,321.4451818000525,321.92679299996234,321.92684790003113,321.94285010010935,326.9157952000387,"['h', 'a', 's', 'p', 'e']","[1.086165599990636, 1.2870303001254797, 1.5067710999865085, 1.868585899937898, 2.201520400121808]","[0.13862160011194646, 0.19122049980796874, 0.2203975000884384, 0.1979843000881374, 0.19729059981182218]",438452,001,2024-11-17_13h41.02.717,WholeReportMethod,2024.1.5,None,2024-11-17 13h41.09.510689 +0530,
57,0,57,0,326.9339133000467,,,,,,,,,326.91898620012216,326.9339133000467,327.416199499974,327.4162372001447,327.432474500034,332.42156990012154,"['j', 'z', 't', 'v']","[1.5077214997727424, 2.3294900998007506, 3.0938639999367297, 3.537523099919781]","[0.1466529001481831, 0.2749575001653284, 0.19255069992505014, 0.18456689990125597]",438452,001,2024-11-17_13h41.02.717,WholeReportMethod,2024.1.5,None,2024-11-17 13h41.09.510689 +0530,
58,0,58,0,332.4409279001411,,,,,,,,,332.4251187001355,332.4409279001411,332.92191600007936,332.9219514001161,332.9388371000532,337.92774410010315,"['k', 'n', 'a', 'v']","[0.984936400083825, 1.2488712000194937, 1.4323064000345767, 2.330839900067076]","[0.16252520005218685, 0.1396356001496315, 0.21206950000487268, 0.19845829997211695]",438452,001,2024-11-17_13h41.02.717,WholeReportMethod,2024.1.5,None,2024-11-17 13h41.09.510689 +0530,
59,0,59,0,337.94664900004864,,,,,,,,,337.930845099967,337.94664900004864,338.42868150002323,338.4287306999322,338.4447135999799,343.4167406000197,"['y', 'n', 'i', 'u', 'k']","[0.837076700059697, 1.2916715999599546, 1.578460399992764, 1.8809070000424981, 2.930499800015241]","[0.15929479990154505, 0.17102390015497804, 0.1435736999846995, 0.12306799995712936, 0.18128110002726316]",438452,001,2024-11-17_13h41.02.717,WholeReportMethod,2024.1.5,None,2024-11-17 13h41.09.510689 +0530,
60,0,60,0,343.4334253000561,,,,,,,,,343.41971189994365,343.4334253000561,343.91762299998663,343.9176604000386,343.9342861000914,348.9230758000631,"['f', 'm', 'n', 'o', 'w']","[2.3499889001250267, 2.600974400062114, 2.9218856999650598, 3.1489045000635087, 3.8883734000846744]","[0.1811309999320656, 0.143429399933666, 0.12571809999644756, 0.19421210000291467, 0.17499400000087917]",438452,001,2024-11-17_13h41.02.717,WholeReportMethod,2024.1.5,None,2024-11-17 13h41.09.510689 +0530,
61,0,61,0,348.9411643000785,,,,,,,,,348.9265491999686,348.9411643000785,349.4235082999803,349.4235472001601,349.43992520007305,354.41220290004276,"['u', 'q', 'd', 'j']","[1.080755600007251, 2.131197900045663, 2.604981000069529, 3.3116824000608176]","[0.1385385999456048, 0.20573499985039234, 0.24029739992693067, 0.14149569999426603]",438452,001,2024-11-17_13h41.02.717,WholeReportMethod,2024.1.5,None,2024-11-17 13h41.09.510689 +0530,
62,0,62,0,354.4314642001409,,,,,,,,,354.41585330013186,354.4314642001409,354.91266010003164,354.91268700012006,354.92919469997287,359.9187116001267,"['s', 't', 'z', 'e', 'd']","[0.8030356999952346, 1.2873092000372708, 2.0863318000920117, 2.565684499917552, 3.560930199921131]","[0.22326279990375042, 0.20830619987100363, 0.23390370002016425, 0.2351208000909537, 0.16386199998669326]",438452,001,2024-11-17_13h41.02.717,WholeReportMethod,2024.1.5,None,2024-11-17 13h41.09.510689 +0530,
63,0,63,0,359.93802720005624,,,,,,,,,359.9216060000472,359.93802720005624,360.4190626000054,360.41909800004214,360.43548159999773,365.4247584999539,"['y', 'h', 'w', 'n']","[1.2608741999138147, 1.542523599928245, 2.0195959999691695, 2.45444029988721]","[0.1285695000551641, 0.14251730008982122, 0.21066479990258813, 0.16603310010395944]",438452,001,2024-11-17_13h41.02.717,WholeReportMethod,2024.1.5,None,2024-11-17 13h41.09.510689 +0530,
64,0,64,0,365.44297119998373,,,,,,,,,365.42872030008584,365.44297119998373,365.9252158999443,365.92527200002223,365.9421238999348,370.91408429993317,"['w', 'e', 'u', 'a']","[0.9868560000322759, 1.3453664002008736, 1.7555194001179188, 2.027929900214076]","[0.2273699000943452, 0.19793469994328916, 0.19101929990574718, 0.24127509980462492]",438452,001,2024-11-17_13h41.02.717,WholeReportMethod,2024.1.5,None,2024-11-17 13h41.09.510689 +0530,
65,0,65,0,370.9327287999913,,,,,,,,,370.9171951999888,370.9327287999913,371.4147836000193,371.4148322001565,371.4311987000983,376.4200210000854,"['n', 'u', 'w', 'i']","[1.1424035001546144, 1.4271913000848144, 1.781035500112921, 2.1099906000308692]","[0.13298169989138842, 0.11800689995288849, 0.19883939996361732, 0.20626400015316904]",438452,001,2024-11-17_13h41.02.717,WholeReportMethod,2024.1.5,None,2024-11-17 13h41.09.510689 +0530,
66,0,66,0,376.43786880001426,,,,,,,,,376.4238148999866,376.43786880001426,376.9207935000304,376.92084429995157,376.93733360012993,381.9256263000425,"['g', 'w', 'o', 'h']","[1.4446000000461936, 1.8068623999133706, 2.122928600059822, 2.46831570006907]","[0.2724388998467475, 0.20447970018722117, 0.3072102000005543, 0.16153129981830716]",438452,001,2024-11-17_13h41.02.717,WholeReportMethod,2024.1.5,None,2024-11-17 13h41.09.510689 +0530,
67,0,67,0,381.9468179999385,,,,,,,,,381.92903380002826,381.9468179999385,382.4263802000787,382.42643680004403,382.44361150008626,387.41560900001787,"['a', 'd', 'n', 'u', 'w']","[0.9146060000639409, 1.335204100003466, 1.693724700016901, 2.0019968999549747, 2.5227616999763995]","[0.2213216999080032, 0.23626150004565716, 0.14486419991590083, 0.13867529993876815, 0.23801760002970695]",438452,001,2024-11-17_13h41.02.717,WholeReportMethod,2024.1.5,None,2024-11-17 13h41.09.510689 +0530,
68,0,68,0,387.43342599994503,,,,,,,,,387.41926739993505,387.43342599994503,387.91606339998543,387.916096100118,387.93281070003286,392.9211345000658,"['v', 'g', 'j', 't']","[0.9370363000780344, 1.6460867000278085, 2.0091919999103993, 2.3140179000329226]","[0.20293069980107248, 0.2070935999508947, 0.15818110015243292, 0.197759399889037]",438452,001,2024-11-17_13h41.02.717,WholeReportMethod,2024.1.5,None,2024-11-17 13h41.09.510689 +0530,
69,0,69,0,392.94016610016115,,,,,,,,,392.92431990010664,392.94016610016115,393.4220019001514,393.4220565999858,393.43822690006346,398.4282772000879,"['t', 'z', 'i', 'e']","[1.7800095998682082, 2.711928299861029, 3.1219605000223964, 3.474304399918765]","[0.2148221000097692, 0.231966300169006, 0.22818419989198446, 0.20744000002741814]",438452,001,2024-11-17_13h41.02.717,WholeReportMethod,2024.1.5,None,2024-11-17 13h41.09.510689 +0530,
70,0,70,0,398.4488429001067,,,,,,,,,398.43161040009,398.4488429001067,398.9281810000539,398.9282347999979,398.94496079999954,403.9177248000633,"['s', 'o', 'm', 'j']","[0.6139365001581609, 0.8767143001314253, 1.3474463999737054, 1.6761541001033038]","[0.18150389986112714, 0.3003626000136137, 0.17122280015610158, 0.1292419999372214]",438452,001,2024-11-17_13h41.02.717,WholeReportMethod,2024.1.5,None,2024-11-17 13h41.09.510689 +0530,
71,0,71,0,403.9357370000798,,,,,,,,,403.92116230004467,403.9357370000798,404.41817459999584,404.4182099001482,404.43426940008067,409.42322350014,"['d', 'd', 'x', 'j', 'k']","[1.540042799897492, 1.8198895000386983, 2.6327634998597205, 3.3507125000469387, 4.077789000002667]","[0.16463250014930964, 0.16682369983755052, 0.2408615001477301, 0.162709099939093, 0.1822120000142604]",438452,001,2024-11-17_13h41.02.717,WholeReportMethod,2024.1.5,None,2024-11-17 13h41.09.510689 +0530,
72,0,72,0,409.44443020015024,,,,,,,,,409.4263099001255,409.44443020015024,409.92378980014473,409.92382799996994,409.9412551999558,414.9124388000928,"['p', 'm', 'z', 's', 'o']","[1.4261065998580307, 1.8430596999824047, 2.756380300037563, 3.111052199965343, 3.594049100065604]","[0.21357270004227757, 0.18776550004258752, 0.20689839986152947, 0.2435598000884056, 0.18196169985458255]",438452,001,2024-11-17_13h41.02.717,WholeReportMethod,2024.1.5,None,2024-11-17 13h41.09.510689 +0530,
73,0,73,0,414.9301649001427,,,,,,,,,414.91497569996864,414.9301649001427,415.4125052001327,415.4125374001451,415.42873940011486,420.4189232001081,"['p', 'j', 'p', 'y', 't']","[1.3944278999697417, 2.872870200080797, 3.1936617998871952, 3.4543113000690937, 3.8007473999168724]","[0.18872809992171824, 0.2770797999110073, 0.2534034000709653, 0.13166549988090992, 0.21207110001705587]",438452,001,2024-11-17_13h41.02.717,WholeReportMethod,2024.1.5,None,2024-11-17 13h41.09.510689 +0530,
74,0,74,0,420.43856559996493,,,,,,,,,420.4224350999575,420.43856559996493,420.91882529994473,420.9188564000651,420.93577229999937,425.92412640014663,"['o', 'j', 'f', 'f', 'w']","[1.2003479001577944, 1.7851452000904828, 2.5105286000762135, 2.7030776999890804, 3.004066100111231]","[0.17683389992453158, 0.13459290005266666, 0.11583520006388426, 0.1725449999794364, 0.20356789999641478]",438452,001,2024-11-17_13h41.02.717,WholeReportMethod,2024.1.5,None,2024-11-17 13h41.09.510689 +0530,
75,0,75,0,425.9422733001411,,,,,,,,,425.9279310000129,425.9422733001411,426.4255311000161,426.4255733001046,426.4414900999982,431.4145925999619,"['c', 'j', 'i', 'n', 't']","[1.7221083999611437, 2.1144087000284344, 2.3636671998538077, 2.587394200032577, 2.9664135000202805]","[0.1942912999074906, 0.1882783998735249, 0.1918460000306368, 0.13477199990302324, 0.20360319991596043]",438452,001,2024-11-17_13h41.02.717,WholeReportMethod,2024.1.5,None,2024-11-17 13h41.09.510689 +0530,
76,0,76,0,431.4321200000122,,,,,,,,,431.41753170010634,431.4321200000122,431.9146948000416,431.91473009996116,431.93073859997094,436.9186855000444,"['k', 'c', 'o', 'o', 'i', 'w', 'd']","[1.144810400204733, 1.6201293000485748, 2.089811500161886, 2.2818710000719875, 2.668407900026068, 3.167261000024155, 4.194209900218993]","[0.13080199994146824, 0.21167300012893975, 0.10103160003200173, 0.1225741000380367, 0.1533842000644654, 0.21961480006575584, None]",438452,001,2024-11-17_13h41.02.717,WholeReportMethod,2024.1.5,None,2024-11-17 13h41.09.510689 +0530,
77,0,77,0,436.9354121000506,,,,,,,,,436.92012979998253,436.9354121000506,437.4204591999296,437.42051740013994,437.4369808000047,442.4258663000073,"['k', 'v', 'e', 'd', 'x']","[1.268817399861291, 1.7644501000177115, 2.1474769997876137, 2.495262499898672, 3.838099099928513]","[0.14109360007569194, 0.24097589985467494, 0.18321990012191236, 0.2083487999625504, 0.21224320004694164]",438452,001,2024-11-17_13h41.02.717,WholeReportMethod,2024.1.5,None,2024-11-17 13h41.09.510689 +0530,
78,0,78,0,442.4438585001044,,,,,,,,,442.42944810003974,442.4438585001044,442.92645100015216,442.9264744000975,442.9426887000445,447.91528149996884,"['f', 'l', 's', 't', 'c', 'x']","[1.6867577999364585, 2.1329051998909563, 2.3559395999182016, 2.719604500103742, 3.259988199919462, 3.933819399913773]","[0.17111030011437833, 0.16605230001732707, 0.20526510011404753, 0.1841170999687165, 0.2827835001517087, 0.19463110016658902]",438452,001,2024-11-17_13h41.02.717,WholeReportMethod,2024.1.5,None,2024-11-17 13h41.09.510689 +0530,
79,0,79,0,447.9342753000092,,,,,,,,,447.9196234000847,447.9342753000092,448.41691750008613,448.4169680001214,448.43236860004254,453.4214634001255,"['k', 'w', 'f', 'b', 't']","[1.1512968998868018, 2.3954326999373734, 3.255653099855408, 3.5730233998037875, 4.0273418999277055]","[0.1429608000908047, 0.21373369987122715, 0.18172290013171732, 0.09350499999709427, 0.20021310006268322]",438452,001,2024-11-17_13h41.02.717,WholeReportMethod,2024.1.5,None,2024-11-17 13h41.09.510689 +0530,
80,0,80,0,453.4410699000582,,,,,,,,,453.4248323000502,453.4410699000582,453.92224880005233,453.922299799975,453.93912909994833,458.9269564000424,"['x', 'j', 'p', 't']","[1.4048784000333399, 2.0629114999901503, 2.4184289001859725, 3.018294900190085]","[0.24931730004027486, 0.24856640002690256, 0.20455069979652762, 0.19322019978426397]",438452,001,2024-11-17_13h41.02.717,WholeReportMethod,2024.1.5,None,2024-11-17 13h41.09.510689 +0530,
81,0,81,0,458.94334629992954,,,,,,,,,458.9287297001574,458.94334629992954,459.411868999945,459.41189779993147,459.4271895000711,464.41693790000863,"['l', 'k', 't', 'x', 'p']","[1.334198399912566, 1.6144254000391811, 2.21736459992826, 2.9091823999769986, 3.2850969000719488]","[0.14729430014267564, 0.11221249983645976, 0.19051770004443824, 0.21830069995485246, 0.20373269985429943]",438452,001,2024-11-17_13h41.02.717,WholeReportMethod,2024.1.5,None,2024-11-17 13h41.09.510689 +0530,
82,0,82,0,464.436911100056,,,,,,,,,464.42053769994527,464.436911100056,464.91812540008686,464.9181618001312,464.93419239996,469.9230663999915,"['a', 'z', 'i', 'u', 'v']","[0.9198916000314057, 1.5355141998734325, 2.216268999967724, 2.5871369000524282, 3.2027926000300795]","[0.21003560000099242, 0.4251952001359314, 0.26572109991684556, 0.1781468999106437, 0.2180285998620093]",438452,001,2024-11-17_13h41.02.717,WholeReportMethod,2024.1.5,None,2024-11-17 13h41.09.510689 +0530,
83,0,83,0,469.94095519999973,,,,,,,,,469.92543129995465,469.94095519999973,470.42450050008483,470.4245492001064,470.44005560013466,475.4125906000845,"['n', 'e', 'o', 'f', 'c']","[1.0305131999775767, 1.5878341000061482, 1.8586390998680145, 2.1214775999542326, 2.8433588999323547]","[0.18586289999075234, 0.22427769983187318, 0.20010920008644462, 0.20521680009551346, 0.20214139996096492]",438452,001,2024-11-17_13h41.02.717,WholeReportMethod,2024.1.5,None,2024-11-17 13h41.09.510689 +0530,
84,0,84,0,475.43277060007676,,,,,,,,,475.41591300000437,475.43277060007676,475.91304889996536,475.91312859999016,475.9296474000439,480.9183344999328,"['k', 'c', 'p', 's']","[0.9610178999137133, 2.0532044998835772, 2.4046487000305206, 2.7552096000872552]","[0.1291718001011759, 0.2212695002090186, 0.23668459989130497, 0.28112119995057583]",438452,001,2024-11-17_13h41.02.717,WholeReportMethod,2024.1.5,None,2024-11-17 13h41.09.510689 +0530,
85,0,85,0,480.93760960013606,,,,,,,,,480.9216355001554,480.93760960013606,481.4199437000789,481.41998470015824,481.43651730008423,486.4252206000965,"['c', 'b', 's', 'l']","[1.4557467000558972, 1.7094511000905186, 1.9363462999463081, 2.186788700055331]","[0.26662219990976155, 0.15233669988811016, 0.20299680018797517, 0.1581079000607133]",438452,001,2024-11-17_13h41.02.717,WholeReportMethod,2024.1.5,None,2024-11-17 13h41.09.510689 +0530,
86,0,86,0,486.4435302000493,,,,,,,,,486.42859090003185,486.4435302000493,486.92573949997313,486.9257763000205,486.94188609998673,491.913057200145,"['i', 'k', 'p', 'f']","[1.0442693000659347, 1.2902478999458253, 1.672381800133735, 2.1072001999709755]","[0.12347209989093244, 0.09536150004714727, 0.1266959998756647, 0.17486590007320046]",438452,001,2024-11-17_13h41.02.717,WholeReportMethod,2024.1.5,None,2024-11-17 13h41.09.510689 +0530,
87,0,87,0,491.92987500014715,,,,,,,,,491.9150012000464,491.92987500014715,492.4142812001519,492.4143050001003,492.4302197000943,497.4203173001297,"['m', 't', 't', 'w', 'l']","[0.9615074000321329, 1.5629678000696003, 2.8064558999612927, 3.154910100158304, 3.4106153999455273]","[0.13838190003298223, 0.21769479988142848, 0.2364988001063466, 0.21112489979714155, 0.18334790016524494]",438452,001,2024-11-17_13h41.02.717,WholeReportMethod,2024.1.5,None,2024-11-17 13h41.09.510689 +0530,
88,0,88,0,497.4391380001325,,,,,,,,,497.4242362999357,497.4391380001325,497.92094029998407,497.92097959993407,497.93702089996077,502.9254715000279,"['s', 'b', 'd', 'q']","[0.6732948001008481, 1.0525126999709755, 1.3783951001241803, 2.0836392999626696]","[0.20800109999254346, 0.13187630008906126, 0.2635514000430703, 0.24144800007343292]",438452,001,2024-11-17_13h41.02.717,WholeReportMethod,2024.1.5,None,2024-11-17 13h41.09.510689 +0530,
89,0,89,0,502.9422119001392,,,,,,,,,502.92753430013545,502.9422119001392,503.4263067001011,503.4263480999507,503.44350780011155,508.4155031000264,"['u', 'n', 't', 'k', 'o']","[0.7867062999866903, 1.2653757999651134, 1.7127121998928487, 2.0499732999596745, 2.7546563998330384]","[0.16454480006359518, 0.16167209995910525, 0.24578270013444126, 0.14771299995481968, 0.20101060019806027]",438452,001,2024-11-17_13h41.02.717,WholeReportMethod,2024.1.5,None,2024-11-17 13h41.09.510689 +0530,
90,0,90,0,508.43559230002575,,,,,,,,,508.419377299957,508.43559230002575,508.9165350999683,508.91656480007805,508.9322832999751,513.9222953000572,"['f', 'v', 'l', 'i', 'w', 'd']","[1.0923737999983132, 1.4359764999244362, 1.6471541998907924, 1.9166875998489559, 2.742674299981445, 4.630068599944934]","[0.19708049995824695, 0.20794530003331602, 0.3883213000372052, 0.13615830009803176, 0.24914860003627837, 0.28569329995661974]",438452,001,2024-11-17_13h41.02.717,WholeReportMethod,2024.1.5,None,2024-11-17 13h41.09.510689 +0530,
91,0,91,0,513.9393343001138,,,,,,,,,513.9260333999991,513.9393343001138,514.4224460001569,514.4224934000522,514.4386609999929,519.4271691001486,"['d', 'm', 'x', 'u', 'v']","[1.380602000048384, 1.6970358001999557, 2.6200212000403553, 3.079817800084129, 3.6509941001422703]","[0.2148605000693351, 0.17419739998877048, 0.23289120011031628, 0.1499594000633806, 0.214495699852705]",438452,001,2024-11-17_13h41.02.717,WholeReportMethod,2024.1.5,None,2024-11-17 13h41.09.510689 +0530,
92,0,92,0,519.4433250001166,,,,,,,,,519.4283839999698,519.4433250001166,519.9280372001231,519.9280735000502,519.9447977000382,524.9170909000095,"['f', 'd', 'x', 'l']","[1.0073444999288768, 1.3861554998438805, 3.129481100011617, 3.429091600002721]","[0.20237069996073842, 0.2021828000433743, 0.2368494998663664, 0.21143729984760284]",438452,001,2024-11-17_13h41.02.717,WholeReportMethod,2024.1.5,None,2024-11-17 13h41.09.510689 +0530,
93,0,93,0,524.9337983001024,,,,,,,,,524.9205579999834,524.9337983001024,525.4180238000117,525.4180960000958,525.433843600098,530.4234397001565,"['g', 'x', 'h', 'h']","[1.0857430999167264, 1.7860983998980373, 2.3334212000481784, 2.536286599934101]","[0.18608879996463656, 0.22813920001499355, 0.10816289996728301, 0.12200210010632873]",438452,001,2024-11-17_13h41.02.717,WholeReportMethod,2024.1.5,None,2024-11-17 13h41.09.510689 +0530,
94,0,94,0,530.442675099941,,,,,,,,,530.4262167001143,530.442675099941,530.9236580999568,530.9237081001047,530.9406359000131,535.9126794999465,"['v', 'n', 'r', 'i']","[0.9307868999894708, 1.1999294001143426, 1.915420399978757, 2.157987100072205]","[0.21648639999330044, 0.16814439999870956, 0.23004489997401834, 0.17165829986333847]",438452,001,2024-11-17_13h41.02.717,WholeReportMethod,2024.1.5,None,2024-11-17 13h41.09.510689 +0530,
95,0,95,0,535.932016500039,,,,,,,,,535.915999900084,535.932016500039,536.4137828000821,536.4138218001463,536.429396300111,541.4186146999709,"['y', 'g', 'l', 's']","[1.0682847001589835, 1.434156300034374, 1.6461615001317114, 1.8351563999895006]","[0.15787669993005693, 0.21106490003876388, 0.18743809987790883, 0.19948970014229417]",438452,001,2024-11-17_13h41.02.717,WholeReportMethod,2024.1.5,None,2024-11-17 13h41.09.510689 +0530,
96,0,96,0,541.4394688999746,,,,,,,,,541.421855899971,541.4394688999746,541.919495300157,541.9195292999502,541.9355307000224,546.9249011999927,"['e', 'i', 'g', 'd']","[1.0681929998099804, 1.7920958998147398, 2.1354020999278873, 2.524182799970731]","[0.21876310021616518, 0.1754882000386715, 0.20498430007137358, 0.2149263999890536]",438452,001,2024-11-17_13h41.02.717,WholeReportMethod,2024.1.5,None,2024-11-17 13h41.09.510689 +0530,
97,0,97,0,546.9433147001546,,,,,,,,,546.9277018001303,546.9433147001546,547.4252675999887,547.4254177999683,547.4423785000108,552.4142130999826,"['i', 's', 'm', 'j']","[0.6240779999643564, 0.8259423999115825, 1.1513994000852108, 1.8819335999432951]","[0.15080290008336306, 0.16285030008293688, 0.1954275998286903, 0.11617020005360246]",438452,001,2024-11-17_13h41.02.717,WholeReportMethod,2024.1.5,None,2024-11-17 13h41.09.510689 +0530,
98,0,98,0,552.4335473000538,,,,,,,,,552.4180348000955,552.4335473000538,552.9140635000076,552.9140876000747,552.9306948999874,557.9201752000954,"['n', 'm', 'x', 'm']","[1.099316299892962, 1.3444749999325722, 2.166860400000587, 2.515497799962759]","[0.12301760003902018, 0.13997250003740191, 0.21688469988293946, 0.15485910000279546]",438452,001,2024-11-17_13h41.02.717,WholeReportMethod,2024.1.5,None,2024-11-17 13h41.09.510689 +0530,
99,0,99,0,557.9413169999607,,,,,,,,,557.9227259999607,557.9413169999607,558.4212223000359,558.4212710000575,558.4375480001327,563.4259440000169,"['w', 'x', 'd', 'h', 'd']","[0.8892861001659185, 1.642788200173527, 2.076391600072384, 2.3485934000927955, 4.116908600088209]","[0.22131019993685186, 0.2482239999808371, 0.23662610002793372, 0.184116099961102, 0.22355129988864064]",438452,001,2024-11-17_13h41.02.717,WholeReportMethod,2024.1.5,None,2024-11-17 13h41.09.510689 +0530,
