trials.thisRepN,trials.thisTrialN,trials.thisN,trials.thisIndex,thisRow.t,notes,introduction.started,text.started,key_resp.started,introduction.stopped,key_resp.keys,key_resp.rt,key_resp.duration,trial.started,letter_grid.started,trial.stopped,response_routine.started,response.started,response_routine.stopped,response.keys,response.rt,response.duration,participant,session,date,expName,psychopyVersion,frameRate,expStart,
,,,,,,0.0025936998426914215,0.01872469997033477,0.01872469997033477,39.622022499796,space,39.492319900076836,None,,,,,,,,,,538039,001,2024-11-18_09h38.49.105,WholeReportMethod,2024.1.5,None,2024-11-18 09h38.57.645272 +0530,
0,0,0,0,39.641564399935305,,,,,,,,,39.624612299958244,39.641564399935305,40.13084979983978,40.13089819997549,40.14684770000167,45.1361282998696,None,,,538039,001,2024-11-18_09h38.49.105,WholeReportMethod,2024.1.5,None,2024-11-18 09h38.57.645272 +0530,
1,0,1,0,45.16675259987824,,,,,,,,,45.141374999890104,45.16675259987824,45.636613899841905,45.63665509992279,45.65397549979389,50.6252105999738,"['f', 's', 'l', 'd']","[1.74753910000436, 2.1615822000894696, 2.9025553001556545, 3.70480199996382]","[0.10978169995360076, 0.0704413999337703, 0.08855809993110597, 0.08490590006113052]",538039,001,2024-11-18_09h38.49.105,WholeReportMethod,2024.1.5,None,2024-11-18 09h38.57.645272 +0530,
2,0,2,0,50.74165699980222,,,,,,,,,50.62847399991006,50.74165699980222,51.12631919980049,51.12636249978095,51.14265119982883,56.131004199851304,"['z', 'y', 'h']","[1.735599699895829, 2.5410116999410093, 4.162492499919608]","[0.11750070005655289, 0.0955715999007225, 0.09213129989802837]",538039,001,2024-11-18_09h38.49.105,WholeReportMethod,2024.1.5,None,2024-11-18 09h38.57.645272 +0530,
3,0,3,0,56.14725979999639,,,,,,,,,56.133052199846134,56.14725979999639,56.63239599997178,56.63243849994615,56.650021199835464,61.637538799783215,"['r', 'x', 'y']","[1.7853705000597984, 2.5266148999799043, 3.86024979990907]","[0.10692239995114505, 0.09663680009543896, 0.10136560001410544]",538039,001,2024-11-18_09h38.49.105,WholeReportMethod,2024.1.5,None,2024-11-18 09h38.57.645272 +0530,
4,0,4,0,61.65565239987336,,,,,,,,,61.64030689978972,61.65565239987336,62.13846159982495,62.13850669981912,62.15466219978407,67.12709659989923,"['v', 'l', 'v']","[1.8530849998351187, 2.6871329999994487, 3.4010893998201936]","[0.11903239996172488, 0.11035159998573363, 0.10972609999589622]",538039,001,2024-11-18_09h38.49.105,WholeReportMethod,2024.1.5,None,2024-11-18 09h38.57.645272 +0530,
5,0,5,0,67.14639049977995,,,,,,,,,67.12989489990287,67.14639049977995,67.62780209979974,67.62783669983037,67.64425019989721,72.6334809998516,"['x', 'g']","[2.2707231000531465, 3.1513195000588894]","[0.11146840010769665, 0.10949459997937083]",538039,001,2024-11-18_09h38.49.105,WholeReportMethod,2024.1.5,None,2024-11-18 09h38.57.645272 +0530,
6,0,6,0,72.64971119980328,,,,,,,,,72.63535019988194,72.64971119980328,73.13357269996777,73.13364469981752,73.1504616998136,78.12261589989066,"['w', 'a', 'q']","[2.151924999896437, 2.7095260999631137, 3.745414799777791]","[0.10857659997418523, 0.08490849984809756, 0.08461670018732548]",538039,001,2024-11-18_09h38.49.105,WholeReportMethod,2024.1.5,None,2024-11-18 09h38.57.645272 +0530,
7,0,7,0,78.13918769988231,,,,,,,,,78.12537499982864,78.13918769988231,78.62349379993975,78.6235319999978,78.63979259994812,83.6283786999993,"['j', 'j', 'v', 'y']","[2.4992005000822246, 2.7522717001847923, 3.3894272001925856, 3.9901765000540763]","[0.11912059993483126, 0.12470169994048774, 0.10832959995605052, 0.08927370002493262]",538039,001,2024-11-18_09h38.49.105,WholeReportMethod,2024.1.5,None,2024-11-18 09h38.57.645272 +0530,
8,0,8,0,83.64605819992721,,,,,,,,,83.63135899999179,83.64605819992721,84.12890219991095,84.12893799995072,84.1455218999181,89.13374739978462,"['x', 'k', 'k', 'r']","[1.460277299862355, 3.2991466999519616, 3.4844504999928176, 4.080358099890873]","[0.10842250008136034, 0.09549489989876747, 0.08901019999757409, 0.0928507000207901]",538039,001,2024-11-18_09h38.49.105,WholeReportMethod,2024.1.5,None,2024-11-18 09h38.57.645272 +0530,
9,0,9,0,89.1500267998781,,,,,,,,,89.1364252998028,89.1500267998781,89.63583739986643,89.63589889998548,89.65255259978585,94.6239212998189,"['t', 'e', 'x']","[2.816033700015396, 3.5163296000100672, 4.158059800043702]","[0.11948259989731014, 0.09966919990256429, 0.10450349980965257]",538039,001,2024-11-18_09h38.49.105,WholeReportMethod,2024.1.5,None,2024-11-18 09h38.57.645272 +0530,
10,0,10,0,94.6414383999072,,,,,,,,,94.62683629989624,94.6414383999072,95.12455509998836,95.12459939997643,95.140926099848,100.13018239988014,"['y', 'k', 'g', 'a']","[1.7159734999295324, 2.4689276998396963, 3.115662399912253, 3.689591399859637]","[0.07599480007775128, 0.1020373001229018, 0.10599160008132458, 0.10494230012409389]",538039,001,2024-11-18_09h38.49.105,WholeReportMethod,2024.1.5,None,2024-11-18 09h38.57.645272 +0530,
11,0,11,0,100.14815979986452,,,,,,,,,100.13382409978658,100.14815979986452,100.6306404999923,100.63070519990288,100.64812009991147,105.63614789978601,"['u', 'v', 'g', 'a']","[1.7042336000595242, 2.2358848999720067, 2.956016100011766, 3.3993897000327706]","[0.12174999993294477, 0.10551159991882741, 0.1095847999677062, 0.09485320001840591]",538039,001,2024-11-18_09h38.49.105,WholeReportMethod,2024.1.5,None,2024-11-18 09h38.57.645272 +0530,
12,0,12,0,105.65418019983917,,,,,,,,,105.63911339989863,105.65418019983917,106.13691709982231,106.13695019995794,106.15312219993211,111.1246118999552,"['g', 'l', 'r', 'c']","[1.500312800053507, 2.1436689998954535, 2.6806884000543505, 4.0999757999088615]","[0.10079950001090765, 0.10613830015063286, 0.09173220000229776, 0.09938820009119809]",538039,001,2024-11-18_09h38.49.105,WholeReportMethod,2024.1.5,None,2024-11-18 09h38.57.645272 +0530,
13,0,13,0,111.1409008000046,,,,,,,,,111.12638069991954,111.1409008000046,111.62642869981937,111.62645739992149,111.6428419998847,116.63202859996818,"['m', 'i', 'w', 'x']","[2.0208881001453847, 2.406130800023675, 3.5561103001236916, 4.431824899977073]","[0.09892879985272884, 0.12261880002915859, 0.09796429984271526, 0.10531380004249513]",538039,001,2024-11-18_09h38.49.105,WholeReportMethod,2024.1.5,None,2024-11-18 09h38.57.645272 +0530,
14,0,14,0,116.64940749993548,,,,,,,,,116.63500399980694,116.64940749993548,117.13218799978495,117.13223839993589,117.14861629996449,122.13745459984057,"['t', 'z', 'v']","[2.533203999977559, 3.0497169999871403, 3.8141800998710096]","[0.09808439994230866, 0.11706590000540018, 0.1105812001042068]",538039,001,2024-11-18_09h38.49.105,WholeReportMethod,2024.1.5,None,2024-11-18 09h38.57.645272 +0530,
15,0,15,0,122.1553614998702,,,,,,,,,122.14129739999771,122.1553614998702,122.63792259991169,122.63798059988767,122.65583349997178,127.62919809995219,"['i', 'z', 'w', 's']","[1.7242040000855923, 2.4678194001317024, 3.5868073001038283, 4.016156499972567]","[0.11867820005863905, 0.10539799998514354, 0.09563979995436966, 0.08606320014223456]",538039,001,2024-11-18_09h38.49.105,WholeReportMethod,2024.1.5,None,2024-11-18 09h38.57.645272 +0530,
16,0,16,0,127.64718669978902,,,,,,,,,127.63203749991953,127.64718669978902,128.12784019997343,128.12787989992648,128.1440201997757,133.13329919986427,"['k', 'i', 'z', 'n']","[1.484686000039801, 1.7468286999501288, 2.625333699863404, 3.2015644998755306]","[0.10190039989538491, 0.08602720010094345, 0.10865500010550022, 0.09761350019834936]",538039,001,2024-11-18_09h38.49.105,WholeReportMethod,2024.1.5,None,2024-11-18 09h38.57.645272 +0530,
17,0,17,0,133.15030939993449,,,,,,,,,133.13593409978785,133.15030939993449,133.63382479990833,133.63387779984623,133.65088949981146,138.62314699986018,"['u', 'k', 'n', 'l']","[1.5967835001647472, 2.0956321000121534, 2.7207806000951678, 3.062774700112641]","[0.08567559998482466, 0.09009760012850165, 0.09199219988659024, 0.09667439991608262]",538039,001,2024-11-18_09h38.49.105,WholeReportMethod,2024.1.5,None,2024-11-18 09h38.57.645272 +0530,
18,0,18,0,138.63902199990116,,,,,,,,,138.62628209986724,138.63902199990116,139.12281609978527,139.12287379987538,139.13935549999587,144.12901649996638,"['d', 's', 'i', 'c']","[1.8912096999119967, 2.3203304999042302, 3.314536300022155, 3.802051399834454]","[0.10219980007968843, 0.08605420007370412, 0.08848259993828833, 0.10959810018539429]",538039,001,2024-11-18_09h38.49.105,WholeReportMethod,2024.1.5,None,2024-11-18 09h38.57.645272 +0530,
19,0,19,0,144.1465616999194,,,,,,,,,144.13189179985784,144.1465616999194,144.62914039986208,144.62919839983806,144.6453942998778,149.63450699998066,"['p', 'u', 'c', 'x']","[2.0860234999563545, 2.6501255999319255, 4.154002299997956, 4.488685899879783]","[0.12526699993759394, 0.12226750003173947, 0.10899119987152517, 0.1161778001114726]",538039,001,2024-11-18_09h38.49.105,WholeReportMethod,2024.1.5,None,2024-11-18 09h38.57.645272 +0530,
20,0,20,0,149.65250629978254,,,,,,,,,149.6373616999481,149.65250629978254,150.13522709999233,150.1352801998146,150.15140899992548,155.12306529982015,"['v', 'a', 'u', 'h']","[1.8839296998921782, 2.3833302999846637, 3.010685099987313, 4.022702699992806]","[0.11624119989573956, 0.10599549999460578, 0.09722230001352727, 0.1052411999553442]",538039,001,2024-11-18_09h38.49.105,WholeReportMethod,2024.1.5,None,2024-11-18 09h38.57.645272 +0530,
21,0,21,0,155.13955109985545,,,,,,,,,155.1253515998833,155.13955109985545,155.62431259988807,155.6244842999149,155.64082879992202,160.6300425999798,"['f', 'm', 'b', 'k']","[1.5272955999244004, 2.3575573000125587, 2.972350599942729, 3.4625510999467224]","[0.08329039998352528, 0.11999700008891523, 0.09903310006484389, 0.07812550012022257]",538039,001,2024-11-18_09h38.49.105,WholeReportMethod,2024.1.5,None,2024-11-18 09h38.57.645272 +0530,
22,0,22,0,160.64782239985652,,,,,,,,,160.63296359986998,160.64782239985652,161.13206849992275,161.13210009993054,161.14709949982353,166.1360710998997,"['e', 'v', 'g', 'y']","[1.4998180998954922, 2.064446199918166, 2.5582500998862088, 2.87200600001961]","[0.08648970001377165, 0.11792730004526675, 0.09096539998427033, 0.08367389999330044]",538039,001,2024-11-18_09h38.49.105,WholeReportMethod,2024.1.5,None,2024-11-18 09h38.57.645272 +0530,
23,0,23,0,166.15351679991,,,,,,,,,166.1388585998211,166.15351679991,166.63699629995972,166.63703599991277,166.6533669999335,171.62528709997423,"['v', 'i', 'i', 'x']","[1.5280043000821024, 2.232867400161922, 2.4109881001058966, 2.980607000179589]","[0.12053550011478364, 0.07603239989839494, 0.08276710007339716, 0.11388439987786114]",538039,001,2024-11-18_09h38.49.105,WholeReportMethod,2024.1.5,None,2024-11-18 09h38.57.645272 +0530,
24,0,24,0,171.64393339981325,,,,,,,,,171.62798399990425,171.64393339981325,172.12613429990597,172.12616739980876,172.1427304998506,177.13203719980083,"['z', 'u', 't']","[2.031050299992785, 2.8707665000110865, 3.233421199955046]","[0.12808869988657534, 0.10603779996745288, 0.11244309996254742]",538039,001,2024-11-18_09h38.49.105,WholeReportMethod,2024.1.5,None,2024-11-18 09h38.57.645272 +0530,
25,0,25,0,177.14931779983453,,,,,,,,,177.13456219993532,177.14931779983453,177.63227259996347,177.6323037999682,177.64946039998904,182.63751909998246,"['z', 'o', 's', 'n']","[1.2510251000057906, 1.8791535999625921, 2.496961100026965, 3.036135299829766]","[0.14870599983260036, 0.10183499986305833, 0.11914999992586672, 0.09463960002176464]",538039,001,2024-11-18_09h38.49.105,WholeReportMethod,2024.1.5,None,2024-11-18 09h38.57.645272 +0530,
26,0,26,0,182.6573629998602,,,,,,,,,182.64016009983607,182.6573629998602,183.1382267998997,183.1382790999487,183.1545832999982,188.1269354999531,"['d', 'c', 'f', 'r']","[1.4869480999186635, 2.009143899893388, 2.3367043000180274, 2.706291399896145]","[0.11600359994918108, 0.10721210017800331, 0.10679910006001592, 0.12853160011582077]",538039,001,2024-11-18_09h38.49.105,WholeReportMethod,2024.1.5,None,2024-11-18 09h38.57.645272 +0530,
27,0,27,0,188.14480039989576,,,,,,,,,188.12974439980462,188.14480039989576,188.62774509983137,188.62777759996243,188.64404489984736,193.63349979999475,"['c', 'q', 'h', 'x']","[1.6973506000358611, 2.2038826001808047, 3.763937200186774, 4.760496100177988]","[0.10775630013085902, 0.1326055999379605, 0.11204239982180297, 0.12378289992921054]",538039,001,2024-11-18_09h38.49.105,WholeReportMethod,2024.1.5,None,2024-11-18 09h38.57.645272 +0530,
28,0,28,0,193.6507927000057,,,,,,,,,193.63622699980624,193.6507927000057,194.13352159992792,194.1335642999038,194.15012059989385,199.12216359982267,"['o', 'g', 'f', 'a']","[2.0415172001812607, 2.5771857001818717, 3.1889813002198935, 3.554131500190124]","[0.11581259989179671, 0.10415799985639751, 0.09478769986890256, 0.1098585999570787]",538039,001,2024-11-18_09h38.49.105,WholeReportMethod,2024.1.5,None,2024-11-18 09h38.57.645272 +0530,
29,0,29,0,199.13996749999933,,,,,,,,,199.12482439982705,199.13996749999933,199.6233551998157,199.62339859991334,199.6395110997837,204.6283942000009,"['x', 'k', 'v']","[1.5464784000068903, 2.520114199956879, 3.06018040003255]","[0.1136224998626858, 0.11161489994265139, 0.11136139999143779]",538039,001,2024-11-18_09h38.49.105,WholeReportMethod,2024.1.5,None,2024-11-18 09h38.57.645272 +0530,
30,0,30,0,204.64559369999915,,,,,,,,,204.6309684999287,204.64559369999915,205.12851649988443,205.1285496999044,205.1453702999279,210.13458559988067,"['v', 'k', 'v', 'i']","[2.676441099960357, 3.3764233998954296, 3.84563949983567, 4.25300159980543]","[0.10468970006331801, 0.10462040011771023, 0.09376080008223653, 0.11244980012997985]",538039,001,2024-11-18_09h38.49.105,WholeReportMethod,2024.1.5,None,2024-11-18 09h38.57.645272 +0530,
31,0,31,0,210.152542399941,,,,,,,,,210.13732959982008,210.152542399941,210.63478869991377,210.63483389979228,210.65221129986458,215.62340059992857,"['y', 'u', 'c']","[2.462688400177285, 3.5310084000229836, 4.52982970001176]","[0.12330959993414581, 0.11808180017396808, 0.12078430014662445]",538039,001,2024-11-18_09h38.49.105,WholeReportMethod,2024.1.5,None,2024-11-18 09h38.57.645272 +0530,
32,0,32,0,215.63971719983965,,,,,,,,,215.62579869991168,215.63971719983965,216.1246426999569,216.12467959988862,216.14120609988458,221.1300373999402,"['y', 'q']","[2.88312999997288, 3.6613525999709964]","[0.12056239997036755, 0.1145786999259144]",538039,001,2024-11-18_09h38.49.105,WholeReportMethod,2024.1.5,None,2024-11-18 09h38.57.645272 +0530,
33,0,33,0,221.14692999981344,,,,,,,,,221.13290269998834,221.14692999981344,221.63024579989724,221.63027269998565,221.6487028999254,226.6360454999376,"['n', 'd', 'u', 'd']","[1.9116312998812646, 2.5005447999574244, 2.815185699844733, 3.091544699855149]","[0.1336453000549227, 0.10605139983817935, 0.11668900004588068, 0.11788440006785095]",538039,001,2024-11-18_09h38.49.105,WholeReportMethod,2024.1.5,None,2024-11-18 09h38.57.645272 +0530,
34,0,34,0,226.6538359997794,,,,,,,,,226.6386402999051,226.6538359997794,227.13687149994075,227.13690129993483,227.15332959988154,232.12524169986136,"['e', 'm', 'c']","[1.8015257001388818, 3.0350977999623865, 3.800861099967733]","[0.12460529990494251, 0.11390240001492202, 0.10499280015937984]",538039,001,2024-11-18_09h38.49.105,WholeReportMethod,2024.1.5,None,2024-11-18 09h38.57.645272 +0530,
35,0,35,0,232.1412685997784,,,,,,,,,232.12722009979188,232.1412685997784,232.62620609998703,232.62624719995074,232.64301409991458,237.631535399938,"['b', 'h']","[2.065182900056243, 2.9114836999215186]","[0.11701129982247949, 0.10737759992480278]",538039,001,2024-11-18_09h38.49.105,WholeReportMethod,2024.1.5,None,2024-11-18 09h38.57.645272 +0530,
36,0,36,0,237.64840659988113,,,,,,,,,237.63420059997588,237.64840659988113,238.13252249988727,238.1325785999652,238.1484834998846,243.1377789999824,"['a', 'q', 'c', 'u']","[1.4322039999533445, 1.9521034001372755, 2.3964670000132173, 2.993979699909687]","[0.15468240017071366, 0.12479559984058142, 0.10830019996501505, 0.1052915002219379]",538039,001,2024-11-18_09h38.49.105,WholeReportMethod,2024.1.5,None,2024-11-18 09h38.57.645272 +0530,
37,0,37,0,243.1551614999771,,,,,,,,,243.14053869992495,243.1551614999771,243.6382658998482,243.63831419986673,243.65556439990178,248.62689689989202,"['k', 's', 'p']","[1.8834989999886602, 2.61824469990097, 4.461935400031507]","[0.12531109992414713, 0.1469019001815468, 0.122329399921]",538039,001,2024-11-18_09h38.49.105,WholeReportMethod,2024.1.5,None,2024-11-18 09h38.57.645272 +0530,
38,0,38,0,248.64480789983645,,,,,,,,,248.62944189994596,248.64480789983645,249.1275757998228,249.1276247999631,249.14400709979236,254.13363789999858,"['d', 'i', 'g', 's']","[1.5026138999965042, 1.962553600082174, 2.8432360999286175, 3.2348166999872774]","[0.10994560015387833, 0.11088779987767339, 0.1171885000076145, 0.09973559994250536]",538039,001,2024-11-18_09h38.49.105,WholeReportMethod,2024.1.5,None,2024-11-18 09h38.57.645272 +0530,
39,0,39,0,254.15079029998742,,,,,,,,,254.13645489979535,254.15079029998742,254.63367439992726,254.63374289986677,254.65121299983002,259.6223927999381,"['l', 'g', 'p', 'a']","[1.6399445999413729, 2.112334599951282, 2.6820402001030743, 2.905661500059068]","[0.12110780016519129, 0.10197660000994802, 0.0960075999610126, 0.08888819999992847]",538039,001,2024-11-18_09h38.49.105,WholeReportMethod,2024.1.5,None,2024-11-18 09h38.57.645272 +0530,
40,0,40,0,259.64006859995425,,,,,,,,,259.62530749989673,259.64006859995425,260.1234286997933,260.1234843998682,260.1395028999541,265.1284733999055,"['g', 'w', 'h']","[2.0039570999797434, 2.593220700044185, 4.583193100057542]","[0.12227339996024966, 0.1222907998599112, 0.11186710000038147]",538039,001,2024-11-18_09h38.49.105,WholeReportMethod,2024.1.5,None,2024-11-18 09h38.57.645272 +0530,
41,0,41,0,265.14632589998655,,,,,,,,,265.13175469986163,265.14632589998655,265.62920879991725,265.6292655998841,265.6457363998052,270.6344687999226,"['u', 'v', 'n', 'j']","[1.5737392001319677, 2.451511299936101, 3.7648620000109076, 4.0426616000477225]","[0.1119049999397248, 0.09846450015902519, 0.10328259994275868, 0.08880420005880296]",538039,001,2024-11-18_09h38.49.105,WholeReportMethod,2024.1.5,None,2024-11-18 09h38.57.645272 +0530,
42,0,42,0,270.6533558999654,,,,,,,,,270.63752909982577,270.6533558999654,271.13511479995213,271.1351782998536,271.1515806999523,276.1241929999087,"['p', 's', 'g', 'g']","[1.7174217998981476, 2.097283500013873, 2.5763902999460697, 2.7433722999412566]","[0.11504890001378953, 0.09779429994523525, 0.07978329993784428, 0.06863009999506176]",538039,001,2024-11-18_09h38.49.105,WholeReportMethod,2024.1.5,None,2024-11-18 09h38.57.645272 +0530,
43,0,43,0,276.1398366999347,,,,,,,,,276.12622329988517,276.1398366999347,276.62458689999767,276.6246237999294,276.6411831998266,281.62980899983086,"['q', 'b', 'q', 'n']","[2.3382115000858903, 2.9282867999281734, 3.4396565000060946, 3.9580268000718206]","[0.14932519989088178, 0.1199961001984775, 0.13402660004794598, 0.09579449985176325]",538039,001,2024-11-18_09h38.49.105,WholeReportMethod,2024.1.5,None,2024-11-18 09h38.57.645272 +0530,
44,0,44,0,281.64765469986014,,,,,,,,,281.63331659999676,281.64765469986014,282.1308210999705,282.13101909984834,282.1472715998534,287.13605359988287,"['u', 'v', 'r', 's']","[3.1986495999153703, 3.690263400087133, 4.209694700082764, 4.564957200083882]","[0.12538390001282096, 0.11626689997501671, 0.11877019982784986, 0.1080878998618573]",538039,001,2024-11-18_09h38.49.105,WholeReportMethod,2024.1.5,None,2024-11-18 09h38.57.645272 +0530,
45,0,45,0,287.1545011999551,,,,,,,,,287.13885459979065,287.1545011999551,287.6368614998646,287.6369026999455,287.654027499957,292.6254184998106,"['t', 'n', 'c', 'a']","[2.1716777998954058, 2.610819200053811, 3.2726344999391586, 3.4060934998560697]","[0.09216480003669858, 0.11606159992516041, 0.09379780013114214, 0.11019320017658174]",538039,001,2024-11-18_09h38.49.105,WholeReportMethod,2024.1.5,None,2024-11-18 09h38.57.645272 +0530,
46,0,46,0,292.6427804999985,,,,,,,,,292.62791909999214,292.6427804999985,293.1264471998438,293.1264898998197,293.14245869987644,298.13130729994737,"['a', 's', 'b', 'x']","[1.1468719001859426, 1.4952132999897003, 2.2956640000920743, 2.770544100087136]","[0.12779819988645613, 0.12156040011905134, 0.10831140005029738, 0.12810490000993013]",538039,001,2024-11-18_09h38.49.105,WholeReportMethod,2024.1.5,None,2024-11-18 09h38.57.645272 +0530,
47,0,47,0,298.1501646998804,,,,,,,,,298.1342584998347,298.1501646998804,298.6319154999219,298.6319532999769,298.6493251998909,303.63767689978704,"['b', 'x', 'o', 'd']","[2.02199889998883, 2.6880602000746876, 3.463664700044319, 4.001116900006309]","[0.11358399991877377, 0.10604509990662336, 0.10662809992209077, 0.10301159997470677]",538039,001,2024-11-18_09h38.49.105,WholeReportMethod,2024.1.5,None,2024-11-18 09h38.57.645272 +0530,
48,0,48,0,303.65542289987206,,,,,,,,,303.64042589999735,303.65542289987206,304.13830249989405,304.1383445998654,304.1548735999968,309.12684139981866,"['d', 'j', 'o', 'u']","[2.2746908999979496, 2.621150800026953, 3.0024637999013066, 3.6054626998957247]","[0.14782599988393486, 0.11898519983515143, 0.13145410013385117, 0.12685290002264082]",538039,001,2024-11-18_09h38.49.105,WholeReportMethod,2024.1.5,None,2024-11-18 09h38.57.645272 +0530,
49,0,49,0,309.14467749977484,,,,,,,,,309.1297064998653,309.14467749977484,309.62783469981514,309.62787949992344,309.64452979993075,314.63280249992386,"['x', 'y', 'g']","[2.452347500016913, 3.6285559001844376, 4.432718300027773]","[0.13481079996563494, 0.12091969978064299, 0.1052328001242131]",538039,001,2024-11-18_09h38.49.105,WholeReportMethod,2024.1.5,None,2024-11-18 09h38.57.645272 +0530,
50,0,50,0,314.6510705999099,,,,,,,,,314.63586319983006,314.6510705999099,315.1347011998296,315.1347395000048,315.1507242999505,320.1225076999981,"['r', 'n', 'j']","[1.9494285001419485, 2.5292206001468003, 3.825617300113663]","[0.07924839993938804, 0.09942250000312924, 0.10789099987596273]",538039,001,2024-11-18_09h38.49.105,WholeReportMethod,2024.1.5,None,2024-11-18 09h38.57.645272 +0530,
51,0,51,0,320.14072679984383,,,,,,,,,320.1271168999374,320.14072679984383,320.62298829993233,320.62302439985797,320.6395819999743,325.62821169989184,"['e', 'e', 'y', 'a']","[1.319553499808535, 1.5250390998553485, 2.149023399921134, 2.3619721999857575]","[0.0854154999833554, 0.07827850012108684, 0.08870520000346005, 0.11565839988179505]",538039,001,2024-11-18_09h38.49.105,WholeReportMethod,2024.1.5,None,2024-11-18 09h38.57.645272 +0530,
52,0,52,0,325.64686169987544,,,,,,,,,325.6314324999694,325.64686169987544,326.12948169978335,326.12954099988565,326.14567080000415,331.134521599859,"['i', 's', 'd', 'c']","[1.9485263000242412, 2.4022494999226183, 2.774209199938923, 3.296685899840668]","[0.11265159980393946, 0.11398150003515184, 0.10298949992284179, 0.09741730010136962]",538039,001,2024-11-18_09h38.49.105,WholeReportMethod,2024.1.5,None,2024-11-18 09h38.57.645272 +0530,
53,0,53,0,331.15200749994256,,,,,,,,,331.13721119984984,331.15200749994256,331.6354080999736,331.63545059994794,331.6523707997985,336.62385859992355,"['g', 'n', 'p', 'o']","[1.5620200000703335, 1.9793549000751227, 2.4848325999919325, 2.7091054001357406]","[0.09983520000241697, 0.08863590005785227, 0.10543680004775524, 0.09788149991072714]",538039,001,2024-11-18_09h38.49.105,WholeReportMethod,2024.1.5,None,2024-11-18 09h38.57.645272 +0530,
54,0,54,0,336.6415812999476,,,,,,,,,336.6266550999135,336.6415812999476,337.12457359978,337.1246161998715,337.1410194998607,342.1296527998056,"['j', 'n', 'v', 'k']","[1.321645300136879, 1.864790900144726, 2.5091539002023637, 3.0678084001410753]","[0.1028831999283284, 0.11605859990231693, 0.10957709979265928, 0.10566770005971193]",538039,001,2024-11-18_09h38.49.105,WholeReportMethod,2024.1.5,None,2024-11-18 09h38.57.645272 +0530,
55,0,55,0,342.1466550999321,,,,,,,,,342.1319197998382,342.1466550999321,342.63070599990897,342.63073759991676,342.647609599866,347.63630249979906,"['q', 'h', 'q', 't']","[2.309592900099233, 2.967612000182271, 3.3039139001630247, 4.08845500019379]","[0.16417709994129837, 0.10982589982450008, 0.16513590002432466, 0.09884159988723695]",538039,001,2024-11-18_09h38.49.105,WholeReportMethod,2024.1.5,None,2024-11-18 09h38.57.645272 +0530,
56,0,56,0,347.65469619981013,,,,,,,,,347.63900489988737,347.65469619981013,348.13687379984185,348.1369105000049,348.1544210999273,353.12521819979884,"['l', 'm', 'c', 'a']","[1.806683200178668, 2.142988600069657, 2.9173477001022547, 3.0774831001181155]","[0.1082500999327749, 0.11470780009403825, 0.11541790002956986, 0.10963799990713596]",538039,001,2024-11-18_09h38.49.105,WholeReportMethod,2024.1.5,None,2024-11-18 09h38.57.645272 +0530,
57,0,57,0,353.14117259997874,,,,,,,,,353.1264704999048,353.14117259997874,353.6284991998691,353.6285341999028,353.6419444999192,358.6316286998335,"['v', 'o', 'l']","[1.288355699973181, 2.084022300085053, 4.31636429997161]","[0.10827580001205206, 0.12210280005820096, 0.1147419000044465]",538039,001,2024-11-18_09h38.49.105,WholeReportMethod,2024.1.5,None,2024-11-18 09h38.57.645272 +0530,
58,0,58,0,358.6505418999586,,,,,,,,,358.63410619995557,358.6505418999586,359.1320323999971,359.1320934998803,359.1488547998015,364.13754939986393,"['h', 'm', 'i']","[1.753479499835521, 2.1807633999269456, 2.5918357998598367]","[0.10613900003954768, 0.1118632999714464, 0.10179680003784597]",538039,001,2024-11-18_09h38.49.105,WholeReportMethod,2024.1.5,None,2024-11-18 09h38.57.645272 +0530,
59,0,59,0,364.1549642998725,,,,,,,,,364.14031349984,364.1549642998725,364.6383214998059,364.6383633997757,364.6550866998732,369.6267965999432,"['d', 'l', 'y']","[1.5141120001208037, 2.6337929000146687, 3.773459499934688]","[0.11690729996189475, 0.12182529992423952, 0.12076740013435483]",538039,001,2024-11-18_09h38.49.105,WholeReportMethod,2024.1.5,None,2024-11-18 09h38.57.645272 +0530,
60,0,60,0,369.6440232999157,,,,,,,,,369.62973609985784,369.6440232999157,370.12780319992453,370.1278551998548,370.14437789982185,375.13305059983395,"['o', 'c', 'v', 'c']","[1.5506545000243932, 2.0154504000674933, 2.3677727999165654, 2.742431699996814]","[0.13874659989960492, 0.13778289989568293, 0.12828120007179677, 0.12511339993216097]",538039,001,2024-11-18_09h38.49.105,WholeReportMethod,2024.1.5,None,2024-11-18 09h38.57.645272 +0530,
61,0,61,0,375.1507706998382,,,,,,,,,375.1368064999115,375.1507706998382,375.6338372998871,375.6338925999589,375.65110819996335,380.6225963998586,"['v', 'n', 'k']","[1.7107663999777287, 2.6254500998184085, 2.9900110999587923]","[0.12208519992418587, 0.10750260017812252, 0.10183119983412325]",538039,001,2024-11-18_09h38.49.105,WholeReportMethod,2024.1.5,None,2024-11-18 09h38.57.645272 +0530,
62,0,62,0,380.64054719987325,,,,,,,,,380.62522469996475,380.64054719987325,381.12317999987863,381.12321210000664,381.13906909991056,386.1283225999214,"['g', 'b', 's', 'x']","[1.8137300999369472, 2.394302799832076, 3.25866309995763, 3.6929603999014944]","[0.10256680008023977, 0.1054381001740694, 0.09980099997483194, 0.09965190012007952]",538039,001,2024-11-18_09h38.49.105,WholeReportMethod,2024.1.5,None,2024-11-18 09h38.57.645272 +0530,
63,0,63,0,386.1457075998187,,,,,,,,,386.1310375998728,386.1457075998187,386.62923469999805,386.629283899907,386.64603269984946,391.6344666997902,"['y', 'h', 'c']","[1.4644901000428945, 2.6578816000837833, 3.9221912000793964]","[0.10275990003719926, 0.1261104999575764, 0.11866579996421933]",538039,001,2024-11-18_09h38.49.105,WholeReportMethod,2024.1.5,None,2024-11-18 09h38.57.645272 +0530,
64,0,64,0,391.65247059985995,,,,,,,,,391.6372907999903,391.65247059985995,392.13552249991335,392.1355649998877,392.1519494999666,397.1239704999607,"['l', 'a', 'i', 'z']","[2.1743199001066387, 2.5484595000743866, 3.2366369001101702, 3.710038400022313]","[0.11898789997212589, 0.18197839986532927, 0.13274359982460737, 0.13774699997156858]",538039,001,2024-11-18_09h38.49.105,WholeReportMethod,2024.1.5,None,2024-11-18 09h38.57.645272 +0530,
65,0,65,0,397.1405063997954,,,,,,,,,397.1251563997939,397.1405063997954,397.6245080998633,397.62453079991974,397.64035449991934,402.63003569981083,"['k', 'x', 't', 'z']","[2.1338080998975784, 2.71977990004234, 3.2641471000388265, 3.9575588000006974]","[0.11974480003118515, 0.11705040000379086, 0.11881019989959896, 0.13886559987440705]",538039,001,2024-11-18_09h38.49.105,WholeReportMethod,2024.1.5,None,2024-11-18 09h38.57.645272 +0530,
66,0,66,0,402.6477932999842,,,,,,,,,402.6327207998838,402.6477932999842,403.13090959982947,403.1309545999393,403.14696389995515,408.1360754999332,"['d', 'v', 'w', 'w']","[2.120727200061083, 2.661853700177744, 3.572059700032696, 3.850903200218454]","[0.11918139993213117, 0.11316880001686513, 0.09566780016757548, 0.11590239987708628]",538039,001,2024-11-18_09h38.49.105,WholeReportMethod,2024.1.5,None,2024-11-18 09h38.57.645272 +0530,
67,0,67,0,408.15420299977995,,,,,,,,,408.13881269982085,408.15420299977995,408.6369256998878,408.6369677998591,408.65363899990916,413.6254503999371,"['y', 'o', 'e', 'k']","[1.4348373000975698, 1.8770797001197934, 2.4791636001318693, 3.3144944000523537]","[0.08102909987792373, 0.12515469989739358, 0.09110599989071488, 0.11531289992853999]",538039,001,2024-11-18_09h38.49.105,WholeReportMethod,2024.1.5,None,2024-11-18 09h38.57.645272 +0530,
68,0,68,0,413.6433160000015,,,,,,,,,413.62828750000335,413.6433160000015,414.1265596000012,414.12658999999985,414.14277459983714,419.13060299982317,"['i', 'p', 'p', 'b']","[1.6440546000376344, 2.049729600083083, 2.2614110000431538, 3.0589612000621855]","[0.1085234999191016, 0.09750290005467832, 0.0994492000900209, 0.09891949989832938]",538039,001,2024-11-18_09h38.49.105,WholeReportMethod,2024.1.5,None,2024-11-18 09h38.57.645272 +0530,
69,0,69,0,419.14725049980916,,,,,,,,,419.1320783998817,419.14725049980916,419.63215079996735,419.6322041999083,419.64959489996545,424.63780029979534,"['p', 'r', 'l', 'v']","[1.5426565997768193, 2.0260794998612255, 2.590475599979982, 3.326139999786392]","[0.11143380007706583, 0.1587380999699235, 0.11615639994852245, 0.12494560005143285]",538039,001,2024-11-18_09h38.49.105,WholeReportMethod,2024.1.5,None,2024-11-18 09h38.57.645272 +0530,
70,0,70,0,424.6564895999618,,,,,,,,,424.6407856999431,424.6564895999618,425.1387900998816,425.1388236999046,425.15514019993134,430.127276299987,"['b', 'u', 'r', 'e']","[1.716812300030142, 2.1097057999577373, 2.6971400000620633, 3.0589265001472086]","[0.11478769988752902, 0.13824330014176667, 0.11842980002984405, 0.12529389979317784]",538039,001,2024-11-18_09h38.49.105,WholeReportMethod,2024.1.5,None,2024-11-18 09h38.57.645272 +0530,
71,0,71,0,430.1457163998857,,,,,,,,,430.13055519992486,430.1457163998857,430.62817849987186,430.62823779997416,430.6440554999281,435.63340349984355,"['t', 'z', 's', 'a']","[3.3601279000286013, 3.752488100202754, 4.361510300077498, 4.499714400153607]","[0.1325594000518322, 0.10318989981897175, 0.09602260007523, 0.10255019995383918]",538039,001,2024-11-18_09h38.49.105,WholeReportMethod,2024.1.5,None,2024-11-18 09h38.57.645272 +0530,
72,0,72,0,435.6529956997838,,,,,,,,,435.63587619992904,435.6529956997838,436.1337824999355,436.133832299849,436.1502642999403,441.12245319993235,"['f', 'x', 'h']","[3.3488988999743015, 3.698474399978295, 4.583324000006542]","[0.11273079994134605, 0.10172459995374084, 0.0858509000390768]",538039,001,2024-11-18_09h38.49.105,WholeReportMethod,2024.1.5,None,2024-11-18 09h38.57.645272 +0530,
73,0,73,0,441.14008799986914,,,,,,,,,441.1252780999057,441.14008799986914,441.62325369985774,441.6233119999524,441.63940619979985,446.62838139990345,"['z', 'q']","[2.110560500063002, 2.5860980001743883]","[0.1215898001100868, 0.13603860000148416]",538039,001,2024-11-18_09h38.49.105,WholeReportMethod,2024.1.5,None,2024-11-18 09h38.57.645272 +0530,
74,0,74,0,446.6497965999879,,,,,,,,,446.63135409983806,446.6497965999879,447.12850150000304,447.1285408998374,447.14530420000665,452.13453699997626,"['s', 'b', 'i', 'j']","[1.918606499908492, 2.639554899884388, 3.0879488999489695, 4.529359099920839]","[0.0983243000227958, 0.10651280009187758, 0.1015671999193728, 0.09785949997603893]",538039,001,2024-11-18_09h38.49.105,WholeReportMethod,2024.1.5,None,2024-11-18 09h38.57.645272 +0530,
75,0,75,0,452.15182659984566,,,,,,,,,452.137418899918,452.15182659984566,452.6361515999306,452.6361931997817,452.65265249996446,457.62406689999625,"['j', 'i', 'n', 'y']","[1.2668550999369472, 1.6321344000753015, 2.610256399959326, 4.462817799998447]","[0.09970990009605885, 0.10890290001407266, 0.11307430011220276, 0.09281480009667575]",538039,001,2024-11-18_09h38.49.105,WholeReportMethod,2024.1.5,None,2024-11-18 09h38.57.645272 +0530,
76,0,76,0,457.6408545000013,,,,,,,,,457.62677649990655,457.6408545000013,458.12490799999796,458.1249671999831,458.1412557999138,463.12993429997005,"['y', 'c', 'v']","[1.9190761998761445, 2.397887700004503, 3.071064699906856]","[0.11080130003392696, 0.13463920005597174, 0.11465930007398129]",538039,001,2024-11-18_09h38.49.105,WholeReportMethod,2024.1.5,None,2024-11-18 09h38.57.645272 +0530,
77,0,77,0,463.147942799842,,,,,,,,,463.1327632998582,463.147942799842,463.63053529988974,463.6306170998141,463.6475957999937,468.6372163000051,"['a', 'j', 'r', 'u']","[1.9174998998641968, 2.4368163999170065, 3.056477499892935, 3.673653099918738]","[0.1814338001422584, 0.11093500000424683, 0.08851850009523332, 0.10602200007997453]",538039,001,2024-11-18_09h38.49.105,WholeReportMethod,2024.1.5,None,2024-11-18 09h38.57.645272 +0530,
78,0,78,0,468.6565935998224,,,,,,,,,468.6404396998696,468.6565935998224,469.13693199981935,469.13698509987444,469.15304959984496,474.1253515998833,"['d', 'r', 'y', 'y']","[1.5964648998342454, 1.9884712998755276, 2.8595968999434263, 3.202644099947065]","[0.11508710007183254, 0.08254820015281439, 0.09887739992700517, 0.10586040001362562]",538039,001,2024-11-18_09h38.49.105,WholeReportMethod,2024.1.5,None,2024-11-18 09h38.57.645272 +0530,
79,0,79,0,474.1422056998126,,,,,,,,,474.1281608999707,474.1422056998126,474.6265556998551,474.6265906000044,474.6424046999309,479.6325477999635,['v'],[2.0396654999349266],[0.11561099998652935],538039,001,2024-11-18_09h38.49.105,WholeReportMethod,2024.1.5,None,2024-11-18 09h38.57.645272 +0530,
80,0,80,0,479.6488886999432,,,,,,,,,479.6353274998255,479.6488886999432,480.13183019985445,480.1318747999612,480.14814629987814,485.13815189991146,"['r', 'f', 'x', 'i']","[2.6089278999716043, 3.570324500091374, 4.1469390001147985, 4.464524100068957]","[0.11572150001302361, 0.09359399997629225, 0.11461519985459745, 0.09803909994661808]",538039,001,2024-11-18_09h38.49.105,WholeReportMethod,2024.1.5,None,2024-11-18 09h38.57.645272 +0530,
81,0,81,0,485.15713419998065,,,,,,,,,485.140605899971,485.15713419998065,485.6384546998888,485.63850789982826,485.6549712999258,490.62801969982684,"['e', 'a', 'd', 'f']","[2.23228619992733, 2.5499437998514622, 2.787461399799213, 3.5548381998669356]","[0.09558349987491965, 0.09632290014997125, 0.11249600001610816, 0.10725350002758205]",538039,001,2024-11-18_09h38.49.105,WholeReportMethod,2024.1.5,None,2024-11-18 09h38.57.645272 +0530,
82,0,82,0,490.64593849983066,,,,,,,,,490.63095519994386,490.64593849983066,491.1280733998865,491.12812709994614,491.1446602998767,496.13283949997276,"['c', 'v', 'm', 'e']","[1.7487987999338657, 1.9847502999473363, 2.597564100055024, 3.3829119000583887]","[0.0986920001450926, 0.09967700019478798, 0.09395330003462732, 0.11134580010548234]",538039,001,2024-11-18_09h38.49.105,WholeReportMethod,2024.1.5,None,2024-11-18 09h38.57.645272 +0530,
83,0,83,0,496.14909859979525,,,,,,,,,496.13522929977626,496.14909859979525,496.6337760000024,496.6338167998474,496.65098919998854,501.6225197999738,"['a', 'p', 't', 'm']","[1.227053599897772, 1.8384620998986065, 2.3489737999625504, 2.9878998999483883]","[0.12513300008140504, 0.10639779991470277, 0.08796550007537007, 0.1066389000043273]",538039,001,2024-11-18_09h38.49.105,WholeReportMethod,2024.1.5,None,2024-11-18 09h38.57.645272 +0530,
84,0,84,0,501.6397716999054,,,,,,,,,501.62505669984967,501.6397716999054,502.1228615997825,502.12288709986024,502.1393240999896,507.1287260998506,"['g', 'l', 'b', 'x']","[2.028167200041935, 2.6961090001277626, 3.6099757000338286, 4.087557000108063]","[0.11479780008085072, 0.10917409998364747, 0.10823819995857775, 0.1255626999773085]",538039,001,2024-11-18_09h38.49.105,WholeReportMethod,2024.1.5,None,2024-11-18 09h38.57.645272 +0530,
85,0,85,0,507.1492023000028,,,,,,,,,507.1311870999634,507.1492023000028,507.62898989999667,507.62904939986765,507.6459326997865,512.6348980998155,"['i', 'v', 'q', 'z']","[1.596491999924183, 2.076906999805942, 2.6363237998448312, 3.261125899851322]","[0.11210309993475676, 0.11506310012191534, 0.11395779997110367, 0.1523365001194179]",538039,001,2024-11-18_09h38.49.105,WholeReportMethod,2024.1.5,None,2024-11-18 09h38.57.645272 +0530,
86,0,86,0,512.6567619999405,,,,,,,,,512.6379426999483,512.6567619999405,513.1352788999211,513.1353595999535,513.151631299872,518.1239004998934,"['v', 'l', 'h', 'e']","[1.6529192000161856, 2.505187700036913, 3.635073299985379, 4.2366450999397784]","[0.1158759999088943, 0.11235219985246658, 0.11321919993497431, 0.13717240002006292]",538039,001,2024-11-18_09h38.49.105,WholeReportMethod,2024.1.5,None,2024-11-18 09h38.57.645272 +0530,
87,0,87,0,518.1416305999737,,,,,,,,,518.1270912999753,518.1416305999737,518.6246891999617,518.6247330999468,518.6412223998923,523.6304401999805,"['f', 'x', 's']","[2.080703299958259, 2.5038999000098556, 4.808075800072402]","[0.10456110001541674, 0.1073235000949353, 0.10264679999090731]",538039,001,2024-11-18_09h38.49.105,WholeReportMethod,2024.1.5,None,2024-11-18 09h38.57.645272 +0530,
88,0,88,0,523.648209199775,,,,,,,,,523.632882699836,523.648209199775,524.1306358999573,524.1306840998586,524.1474085999653,529.1358140998054,None,,,538039,001,2024-11-18_09h38.49.105,WholeReportMethod,2024.1.5,None,2024-11-18 09h38.57.645272 +0530,
89,0,89,0,529.1520638999064,,,,,,,,,529.1371930998284,529.1520638999064,529.6366991999093,529.6368732999545,529.654094700003,534.6254193999339,"['b', 'l', 'r', 'k']","[1.3471607000101358, 1.7991588001605123, 2.554159600054845, 3.1360187001992017]","[0.10665239999070764, 0.132392100058496, 0.0923057000618428, 0.10148319997824728]",538039,001,2024-11-18_09h38.49.105,WholeReportMethod,2024.1.5,None,2024-11-18 09h38.57.645272 +0530,
90,0,90,0,534.642815799918,,,,,,,,,534.627957199933,534.642815799918,535.1263860999607,535.1264262998011,535.1425091999117,540.1322894999757,"['q', 'h', 'e', 'z']","[1.505262600025162, 2.189693799940869, 2.9837782999966294, 3.4467559000477195]","[0.14614139986224473, 0.13798370002768934, 0.08428569999523461, 0.10196579992771149]",538039,001,2024-11-18_09h38.49.105,WholeReportMethod,2024.1.5,None,2024-11-18 09h38.57.645272 +0530,
91,0,91,0,540.1492456998676,,,,,,,,,540.1350805999245,540.1492456998676,540.6325136998203,540.6326077999547,540.6486834997777,545.6375538997818,"['e', 'n', 'z']","[1.529027699958533, 2.3967373000923544, 2.877961700083688]","[0.08082450018264353, 0.11561280000023544, 0.14590799994766712]",538039,001,2024-11-18_09h38.49.105,WholeReportMethod,2024.1.5,None,2024-11-18 09h38.57.645272 +0530,
92,0,92,0,545.6541889999062,,,,,,,,,545.6399551997893,545.6541889999062,546.1381986998022,546.1382490999531,546.154583199881,551.1269867999945,"['s', 'y', 'z', 't']","[1.6057010998483747, 2.1499597998335958, 2.817624199902639, 3.4282469998579472]","[0.14272830006666481, 0.11878020013682544, 0.16574289998970926, 0.11031890008598566]",538039,001,2024-11-18_09h38.49.105,WholeReportMethod,2024.1.5,None,2024-11-18 09h38.57.645272 +0530,
93,0,93,0,551.1445861998945,,,,,,,,,551.1297090000007,551.1445861998945,551.6277906999458,551.6278242999688,551.6448389999568,556.6330379999708,"['q', 'f', 'u', 'j']","[1.681762999854982, 2.7822451998945326, 3.242941099917516, 4.628142500063404]","[0.1609407002106309, 0.0907018999569118, 0.10701990011148155, 0.09263919992372394]",538039,001,2024-11-18_09h38.49.105,WholeReportMethod,2024.1.5,None,2024-11-18 09h38.57.645272 +0530,
94,0,94,0,556.6493691999931,,,,,,,,,556.6356729997788,556.6493691999931,557.1336366999894,557.1336877997965,557.1503142998554,562.1226354998071,"['h', 'f']","[1.9151975999120623, 2.980898200068623]","[0.1274968001525849, 0.3032759998459369]",538039,001,2024-11-18_09h38.49.105,WholeReportMethod,2024.1.5,None,2024-11-18 09h38.57.645272 +0530,
95,0,95,0,562.1389723999891,,,,,,,,,562.1246322998777,562.1389723999891,562.6227398999035,562.622777499957,562.6395174998324,567.6282744999044,"['b', 'b', 't', 'w']","[1.8076766000594944, 2.0169532001018524, 2.4667037001345307, 3.0358329999726266]","[0.11965909996069968, 0.12124849995598197, 0.11091349995695055, 0.13168030022643507]",538039,001,2024-11-18_09h38.49.105,WholeReportMethod,2024.1.5,None,2024-11-18 09h38.57.645272 +0530,
96,0,96,0,567.6462271998171,,,,,,,,,567.6310884999111,567.6462271998171,568.1290225998964,568.1290744999424,568.1451136998367,573.1344379999209,"['v', 'h', 'u']","[2.7721108999103308, 3.152767499908805, 3.7231135999318212]","[0.12267299997620285, 0.11487530008889735, 0.11453039990738034]",538039,001,2024-11-18_09h38.49.105,WholeReportMethod,2024.1.5,None,2024-11-18 09h38.57.645272 +0530,
97,0,97,0,573.1522231998388,,,,,,,,,573.1374559998512,573.1522231998388,573.6355720998254,573.6356306998059,573.6519143998157,578.6243278000038,"['q', 'q', 'n', 'z']","[1.1379929000977427, 1.4209496001712978, 2.009280800120905, 2.566465600160882]","[0.14799480000510812, 0.1511394998524338, 0.10922809992916882, 0.14275989984162152]",538039,001,2024-11-18_09h38.49.105,WholeReportMethod,2024.1.5,None,2024-11-18 09h38.57.645272 +0530,
98,0,98,0,578.6409179999027,,,,,,,,,578.6268729998264,578.6409179999027,579.1248056998011,579.1248422998469,579.1409694999456,584.1297972998582,"['q', 'm', 'f', 'z']","[1.7108618000056595, 2.2568091999273747, 2.96065489994362, 3.36321959993802]","[0.16008109995163977, 0.11793519998900592, 0.1086155001539737, 0.1487902000080794]",538039,001,2024-11-18_09h38.49.105,WholeReportMethod,2024.1.5,None,2024-11-18 09h38.57.645272 +0530,
99,0,99,0,584.1481123999692,,,,,,,,,584.1334758999292,584.1481123999692,584.6308918998111,584.630947999889,584.6471376998816,589.6362121999264,"['m', 'n', 'g', 'x']","[2.2793050999753177, 2.6151181999593973, 3.4503169001545757, 4.337590700015426]","[0.1182939000427723, 0.13718030019663274, 0.12408009986393154, 0.11412840010598302]",538039,001,2024-11-18_09h38.49.105,WholeReportMethod,2024.1.5,None,2024-11-18 09h38.57.645272 +0530,
