trials.thisRepN,trials.thisTrialN,trials.thisN,trials.thisIndex,thisRow.t,notes,introduction.started,text.started,key_resp.started,introduction.stopped,key_resp.keys,key_resp.rt,key_resp.duration,trial.started,letter_grid.started,trial.stopped,response_routine.started,response.started,response_routine.stopped,response.keys,response.rt,response.duration,participant,session,date,expName,psychopyVersion,frameRate,expStart,
,,,,,,0.004005399998277426,0.020156500162556767,0.020156500162556767,7.014701700070873,space,6.874470399925485,None,,,,,,,,,,727798,001,2024-11-17_10h23.23.025,WholeReportMethod,2024.1.5,None,2024-11-17 10h23.37.735134 +0530,
0,0,0,0,7.0347699001431465,,,,,,,,,7.0176215001847595,7.0347699001431465,7.527111700037494,7.527137299999595,7.54414080013521,12.517669500084594,"['h', 'd']","[1.7430355998221785, 1.9334627999924123]","[0.11563190002925694, 0.09239489980973303]",727798,001,2024-11-17_10h23.23.025,WholeReportMethod,2024.1.5,None,2024-11-17 10h23.37.735134 +0530,
1,0,1,0,12.541628800099716,,,,,,,,,12.522778900107369,12.541628800099716,13.014976600185037,13.015004300046712,13.031395000172779,18.024114800151438,"['z', 'z', 'i', 'z']","[1.446551099885255, 1.7926775999367237, 2.2750607000198215, 2.638552000047639]","[0.11170060001313686, 0.09251270000822842, 0.09932429995387793, 0.11227169982157648]",727798,001,2024-11-17_10h23.23.025,WholeReportMethod,2024.1.5,None,2024-11-17 10h23.37.735134 +0530,
2,0,2,0,18.042949700029567,,,,,,,,,18.025535200024024,18.042949700029567,18.52113170013763,18.52115420019254,18.538001200184226,23.53026260016486,"['i', 'g']","[1.6555017000064254, 2.3641231001820415]","[0.08820930006913841, 0.08749949978664517]",727798,001,2024-11-17_10h23.23.025,WholeReportMethod,2024.1.5,None,2024-11-17 10h23.37.735134 +0530,
3,0,3,0,23.544004200026393,,,,,,,,,23.531582500087097,23.544004200026393,24.026465100003406,24.026484300149605,24.043328400002792,29.015791800105944,"['s', 'g']","[1.4751677999738604, 2.163440099917352]","[0.11846240004524589, 0.08493930008262396]",727798,001,2024-11-17_10h23.23.025,WholeReportMethod,2024.1.5,None,2024-11-17 10h23.37.735134 +0530,
4,0,4,0,29.032685999991372,,,,,,,,,29.016680900007486,29.032685999991372,29.518850299995393,29.51887350017205,29.53476330009289,34.5234819999896,"['o', 'y', 'a', 'i']","[1.2732040998525918, 1.7261920999735594, 2.134746100055054, 2.631737400079146]","[0.098794000223279, 0.08866190002299845, 0.10544359986670315, 0.1055753999389708]",727798,001,2024-11-17_10h23.23.025,WholeReportMethod,2024.1.5,None,2024-11-17 10h23.37.735134 +0530,
5,0,5,0,34.542900800006464,,,,,,,,,34.525876900181174,34.542900800006464,35.0260473000817,35.02606920013204,35.039215800119564,40.02720190002583,"['l', 'm', 'e', 'm']","[1.742694899905473, 2.1618935000151396, 3.1992007000371814, 3.66009490005672]","[0.08324120007455349, 0.08471309999004006, 0.10488599981181324, 0.08599759987555444]",727798,001,2024-11-17_10h23.23.025,WholeReportMethod,2024.1.5,None,2024-11-17 10h23.37.735134 +0530,
6,0,6,0,40.046853200066835,,,,,,,,,40.02805870003067,40.046853200066835,40.52966030011885,40.52969200001098,40.54740190017037,45.519039400154725,"['l', 'b', 'i', 'o']","[1.926971800159663, 2.305840800050646, 2.661261700093746, 2.8999495001044124]","[0.11415819986723363, 0.09585359995253384, 0.10461189993657172, 0.09485220001079142]",727798,001,2024-11-17_10h23.23.025,WholeReportMethod,2024.1.5,None,2024-11-17 10h23.37.735134 +0530,
7,0,7,0,45.535022400086746,,,,,,,,,45.52100619999692,45.535022400086746,46.01983380015008,46.019859899999574,46.03615469997749,51.02754190005362,"['i', 'm']","[1.0815352001227438, 1.5806470001116395]","[0.10877340007573366, 0.09105920000001788]",727798,001,2024-11-17_10h23.23.025,WholeReportMethod,2024.1.5,None,2024-11-17 10h23.37.735134 +0530,
8,0,8,0,51.04029260016978,,,,,,,,,51.02888290002011,51.04029260016978,51.52653739997186,51.526597999967635,51.542331099975854,56.530727199977264,"['p', 'd', 'y']","[1.3795427000150084, 1.7381651001051068, 2.1460464999545366]","[0.09866610006429255, 0.0886199998203665, 0.08209959999658167]",727798,001,2024-11-17_10h23.23.025,WholeReportMethod,2024.1.5,None,2024-11-17 10h23.37.735134 +0530,
9,0,9,0,56.54917680006474,,,,,,,,,56.532215300016105,56.54917680006474,57.01568299997598,57.015705100027844,57.03159530018456,62.02051080018282,"['d', 'i', 'b', 'p']","[1.3356596999801695, 1.7904271001461893, 2.239546800032258, 2.7786420001648366]","[0.10440170019865036, 0.0910992999561131, 0.07641720003448427, 0.09212369984015822]",727798,001,2024-11-17_10h23.23.025,WholeReportMethod,2024.1.5,None,2024-11-17 10h23.37.735134 +0530,
10,0,10,0,62.03710169997066,,,,,,,,,62.02174890018068,62.03710169997066,62.52163700014353,62.521656500175595,62.53795220004395,67.5289445000235,"['y', 'z', 'i', 'l']","[2.254161400021985, 2.6306086000986397, 2.970406400039792, 3.2580514000728726]","[0.09095870004966855, 0.08047730010002851, 0.08842299995012581, 0.08377779996953905]",727798,001,2024-11-17_10h23.23.025,WholeReportMethod,2024.1.5,None,2024-11-17 10h23.37.735134 +0530,
11,0,11,0,67.54441129998304,,,,,,,,,67.52984530013055,67.54441129998304,68.02572420006618,68.02574870013632,68.0425031001214,73.01546879997477,"['r', 'f', 'm']","[1.8006396999116987, 2.2186226998455822, 3.09219289990142]","[0.08551550004631281, 0.0959173000883311, 0.08239460014738142]",727798,001,2024-11-17_10h23.23.025,WholeReportMethod,2024.1.5,None,2024-11-17 10h23.37.735134 +0530,
12,0,12,0,73.03372000018135,,,,,,,,,73.01701630000025,73.03372000018135,73.51609549997374,73.5161347000394,73.53259159997106,78.52203180012293,"['l', 't']","[1.5462577999569476, 2.204921599943191]","[0.10258970013819635, 0.092352099949494]",727798,001,2024-11-17_10h23.23.025,WholeReportMethod,2024.1.5,None,2024-11-17 10h23.37.735134 +0530,
13,0,13,0,78.53829060005955,,,,,,,,,78.52349180006422,78.53829060005955,79.024892100133,79.02492340002209,79.03715500002727,84.02971490006894,"['k', 'w', 'z']","[1.5749425999820232, 1.8570892999414355, 2.2360042000655085]","[0.09431540011428297, 0.10494210012257099, 0.10484719998203218]",727798,001,2024-11-17_10h23.23.025,WholeReportMethod,2024.1.5,None,2024-11-17 10h23.37.735134 +0530,
14,0,14,0,84.04441260010935,,,,,,,,,84.03192850016057,84.04441260010935,84.52841140003875,84.52844840008765,84.5444668000564,89.52022309997119,"['x', 'v']","[1.481912099989131, 1.8218352000694722]","[0.1054127998650074, 0.08790889987722039]",727798,001,2024-11-17_10h23.23.025,WholeReportMethod,2024.1.5,None,2024-11-17 10h23.37.735134 +0530,
15,0,15,0,89.53524580015801,,,,,,,,,89.5220580000896,89.53524580015801,90.01694450015202,90.01697320002131,90.03604130004533,95.02436560019851,"['u', 'p']","[1.1880012000910938, 1.6746563999913633]","[0.08670009998604655, 0.06886620004661381]",727798,001,2024-11-17_10h23.23.025,WholeReportMethod,2024.1.5,None,2024-11-17 10h23.37.735134 +0530,
16,0,16,0,95.03817030019127,,,,,,,,,95.02564830007032,95.03817030019127,95.52634490001947,95.52637000009418,95.5417353999801,100.53339910018258,"['k', 'm']","[1.19605390005745, 1.4631227001082152]","[0.10781960003077984, 0.1165213999338448]",727798,001,2024-11-17_10h23.23.025,WholeReportMethod,2024.1.5,None,2024-11-17 10h23.37.735134 +0530,
17,0,17,0,100.54637110000476,,,,,,,,,100.53577020019293,100.54637110000476,101.03072950011119,101.03075380017981,101.04614770016633,106.0183604999911,"['m', 'y']","[1.4390606000088155, 1.9057416999712586]","[0.11467869998887181, 0.09789189998991787]",727798,001,2024-11-17_10h23.23.025,WholeReportMethod,2024.1.5,None,2024-11-17 10h23.37.735134 +0530,
18,0,18,0,106.0365097001195,,,,,,,,,106.02052050014026,106.0365097001195,106.5196361001581,106.51967609999701,106.53619890008122,111.52639520005323,"['y', 'o', 'b', 'o']","[1.5115100000984967, 1.9972206000238657, 2.425812300061807, 2.890408700099215]","[0.08819319983012974, 0.07457490009255707, 0.06550109991803765, 0.0892236998770386]",727798,001,2024-11-17_10h23.23.025,WholeReportMethod,2024.1.5,None,2024-11-17 10h23.37.735134 +0530,
19,0,19,0,111.54275160003453,,,,,,,,,111.52754220017232,111.54275160003453,112.02517380006611,112.02521400013939,112.04138740012422,117.03002559999004,"['u', 'j', 'u', 'l']","[1.296280900016427, 1.6579430000856519, 1.877216799883172, 2.274035600014031]","[0.0756273998413235, 0.06625589984469116, 0.065649300115183, 0.06911189993843436]",727798,001,2024-11-17_10h23.23.025,WholeReportMethod,2024.1.5,None,2024-11-17 10h23.37.735134 +0530,
20,0,20,0,117.04726990009658,,,,,,,,,117.03161599999294,117.04726990009658,117.51586010004394,117.51588800013997,117.53037380008027,122.5211553000845,"['c', 'y', 'z', 'o']","[1.533290500054136, 2.143821300007403, 2.5552787999622524, 2.960880200145766]","[0.07964279991574585, 0.07885810011066496, 0.08636269997805357, 0.0729754997882992]",727798,001,2024-11-17_10h23.23.025,WholeReportMethod,2024.1.5,None,2024-11-17 10h23.37.735134 +0530,
21,0,21,0,122.53659000014886,,,,,,,,,122.52334720012732,122.53659000014886,123.01988880010322,123.01992029999383,123.03566190018319,128.0258437001612,"['s', 's', 'p']","[1.8032783998642117, 2.183679499896243, 3.7593817999586463]","[0.08713600016199052, 0.11776629998348653, 0.08297080011107028]",727798,001,2024-11-17_10h23.23.025,WholeReportMethod,2024.1.5,None,2024-11-17 10h23.37.735134 +0530,
22,0,22,0,128.04196320008487,,,,,,,,,128.0278649001848,128.04196320008487,128.52854910003953,128.52857960015535,128.54216860001907,133.51807510014623,"['w', 'e']","[1.189634800190106, 1.758317300118506]","[0.15820179996080697, 0.12293599988333881]",727798,001,2024-11-17_10h23.23.025,WholeReportMethod,2024.1.5,None,2024-11-17 10h23.37.735134 +0530,
23,0,23,0,133.5320392001886,,,,,,,,,133.5199879000429,133.5320392001886,134.01538750017062,134.01540970010683,134.0352114001289,139.0220264000818,"['w', 'l']","[0.6887839999981225, 1.06665170006454]","[0.12497260002419353, 0.09240999980829656]",727798,001,2024-11-17_10h23.23.025,WholeReportMethod,2024.1.5,None,2024-11-17 10h23.37.735134 +0530,
24,0,24,0,139.03830190002918,,,,,,,,,139.0245237001218,139.03830190002918,139.52247730013914,139.52250540000387,139.53994869999588,144.526729100151,"['n', 'h']","[1.7676609000191092, 1.9575927001424134]","[0.08194860001094639, 0.0754600998479873]",727798,001,2024-11-17_10h23.23.025,WholeReportMethod,2024.1.5,None,2024-11-17 10h23.37.735134 +0530,
25,0,25,0,144.5474533000961,,,,,,,,,144.52801380003802,144.5474533000961,145.02901630010456,145.0290434001945,145.0451429001987,150.01654970017262,"['e', 's', 'i', 'n']","[1.1134508999530226, 1.4088791999965906, 1.6832083999179304, 1.9403502999339253]","[0.12857019994407892, 0.08897979999892414, 0.06836419994942844, 0.07026170007884502]",727798,001,2024-11-17_10h23.23.025,WholeReportMethod,2024.1.5,None,2024-11-17 10h23.37.735134 +0530,
26,0,26,0,150.0342616001144,,,,,,,,,150.01835360005498,150.0342616001144,150.51965620019473,150.51968010002747,150.53537200018764,155.52357740001753,"['p', 't', 'h', 'a']","[1.3271681999322027, 1.7722601999994367, 1.9909654001239687, 2.152239799965173]","[0.07662220019847155, 0.07614050013944507, 0.07534819981083274, 0.09293760010041296]",727798,001,2024-11-17_10h23.23.025,WholeReportMethod,2024.1.5,None,2024-11-17 10h23.37.735134 +0530,
27,0,27,0,155.5393448001705,,,,,,,,,155.52558690006845,155.5393448001705,156.02401709998958,156.02406339999288,156.04008210008033,161.02930720010772,"['b', 'o', 'w', 'a']","[1.760925699956715, 2.1718196000438184, 2.485156400129199, 2.7484212999697775]","[0.07876510010100901, 0.0765014998614788, 0.11180249997414649, 0.0869420999661088]",727798,001,2024-11-17_10h23.23.025,WholeReportMethod,2024.1.5,None,2024-11-17 10h23.37.735134 +0530,
28,0,28,0,161.04445350007154,,,,,,,,,161.03039640001953,161.04445350007154,161.51644280017354,161.51648420002311,161.53047900018282,166.52126569999382,"['m', 'g']","[1.6273745000362396, 2.0280508000869304]","[0.08172230003401637, 0.06581489997915924]",727798,001,2024-11-17_10h23.23.025,WholeReportMethod,2024.1.5,None,2024-11-17 10h23.37.735134 +0530,
29,0,29,0,166.53612289996818,,,,,,,,,166.52218470000662,166.53612289996818,167.01860440010205,167.01864270004444,167.0346115999855,172.02418379997835,"['s', 'h']","[1.4108774000778794, 1.589077099924907]","[0.08553089993074536, 0.07323450013063848]",727798,001,2024-11-17_10h23.23.025,WholeReportMethod,2024.1.5,None,2024-11-17 10h23.37.735134 +0530,
30,0,30,0,172.04042590013705,,,,,,,,,172.02596480003558,172.04042590013705,172.52567930007353,172.52570410002954,172.5413042001892,177.53013209998608,"['t', 't']","[1.024503700202331, 1.206537100020796]","[0.07830339996144176, 0.07541090017184615]",727798,001,2024-11-17_10h23.23.025,WholeReportMethod,2024.1.5,None,2024-11-17 10h23.37.735134 +0530,
31,0,31,0,177.54658690001816,,,,,,,,,177.53122840006836,177.54658690001816,178.03331069997512,178.0333346000407,178.04610639996827,183.0187931000255,"['h', 'c']","[1.5203333999961615, 2.0232084998860955]","[0.07525709993205965, 0.09111950010992587]",727798,001,2024-11-17_10h23.23.025,WholeReportMethod,2024.1.5,None,2024-11-17 10h23.37.735134 +0530,
32,0,32,0,183.0381971001625,,,,,,,,,183.01976789999753,183.0381971001625,183.5206085999962,183.5206420000177,183.53618000005372,188.5259503000416,"['j', 'f', 'f', 'q']","[1.5492638000287116, 1.9904354000464082, 2.320686799939722, 4.406739100115374]","[0.09820599993690848, 0.0692660000640899, 0.07622899999842048, 0.08683249983005226]",727798,001,2024-11-17_10h23.23.025,WholeReportMethod,2024.1.5,None,2024-11-17 10h23.37.735134 +0530,
33,0,33,0,188.54369210009463,,,,,,,,,188.5276814000681,188.54369210009463,189.02759560011327,189.02765309996903,189.04163990006782,194.0166977001354,"['z', 'i']","[1.2195732998661697, 1.796119999838993]","[0.11903570010326803, 0.08150700014084578]",727798,001,2024-11-17_10h23.23.025,WholeReportMethod,2024.1.5,None,2024-11-17 10h23.37.735134 +0530,
34,0,34,0,194.03161270008422,,,,,,,,,194.01824460015632,194.03161270008422,194.5199264001567,194.51994460006244,194.53305560001172,199.52202380006202,"['b', 'o', 'u', 's']","[1.2863442997913808, 1.6064025999512523, 1.853896199958399, 2.0729986999649554]","[0.08649640018120408, 0.08839379996061325, 0.0786734998691827, 0.08003309997729957]",727798,001,2024-11-17_10h23.23.025,WholeReportMethod,2024.1.5,None,2024-11-17 10h23.37.735134 +0530,
35,0,35,0,199.53826340008527,,,,,,,,,199.52381930011325,199.53826340008527,200.02306380006485,200.02309130015783,200.0395391001366,205.02784220012836,"['l', 'p', 'o', 'q']","[1.2133482999633998, 1.827650000108406, 2.1315282001160085, 2.9033804000355303]","[0.0954007999971509, 0.08248019986785948, 0.07578479987569153, 0.08905320009216666]",727798,001,2024-11-17_10h23.23.025,WholeReportMethod,2024.1.5,None,2024-11-17 10h23.37.735134 +0530,
36,0,36,0,205.04500659997575,,,,,,,,,205.0294127999805,205.04500659997575,205.53067190013826,205.53071380010806,205.54510090011172,210.51740640006028,"['d', 'm']","[1.2188001000322402, 1.5174738999921829]","[0.09798900014720857, 0.08213320001959801]",727798,001,2024-11-17_10h23.23.025,WholeReportMethod,2024.1.5,None,2024-11-17 10h23.37.735134 +0530,
37,0,37,0,210.53489170013927,,,,,,,,,210.51949069998227,210.53489170013927,211.01703570014797,211.01706340000965,211.03344290005043,216.02277839998715,"['o', 'd', 'r', 'a']","[0.9503399000968784, 1.5222543999552727, 1.6832886999472976, 1.8301564999856055]","[0.0851524998433888, 0.08617410017177463, 0.07804940012283623, 0.05943750008009374]",727798,001,2024-11-17_10h23.23.025,WholeReportMethod,2024.1.5,None,2024-11-17 10h23.37.735134 +0530,
38,0,38,0,216.04015600006096,,,,,,,,,216.02394090010785,216.04015600006096,216.52447609999217,216.5245107000228,216.54157950007357,221.52788510010578,"['t', 'c', 'c']","[1.0662805000320077, 1.4725607000291348, 1.6568245000671595]","[0.07820540014654398, 0.07995519996620715, 0.06589989992789924]",727798,001,2024-11-17_10h23.23.025,WholeReportMethod,2024.1.5,None,2024-11-17 10h23.37.735134 +0530,
39,0,39,0,221.54563500010408,,,,,,,,,221.52911300002597,221.54563500010408,222.02865750016645,222.0286842000205,222.04998890007846,227.0171864000149,"['r', 'o', 'g']","[2.0718085998669267, 2.315595399821177, 2.765970999840647]","[0.10432399995625019, 0.08237259997986257, 0.07265050010755658]",727798,001,2024-11-17_10h23.23.025,WholeReportMethod,2024.1.5,None,2024-11-17 10h23.37.735134 +0530,
40,0,40,0,227.03483240003698,,,,,,,,,227.01832430018112,227.03483240003698,227.51965250005014,227.51967670000158,227.5378201000858,232.5261045000516,"['w', 'o', 'r', 'a']","[0.8041056001093239, 1.1177358001004905, 1.4923901001457125, 1.6153037999756634]","[0.11855249991640449, 0.0795456999912858, 0.0758517999202013, 0.07509040017612278]",727798,001,2024-11-17_10h23.23.025,WholeReportMethod,2024.1.5,None,2024-11-17 10h23.37.735134 +0530,
41,0,41,0,232.54167330008931,,,,,,,,,232.5276918001473,232.54167330008931,233.02476890012622,233.02479650010355,233.0417119001504,238.01496649999171,"['f', 'r', 'a']","[2.4862222999799997, 2.665146099869162, 3.3084120999556035]","[0.08876330009661615, 0.07338390010409057, 0.07854670006781816]",727798,001,2024-11-17_10h23.23.025,WholeReportMethod,2024.1.5,None,2024-11-17 10h23.37.735134 +0530,
42,0,42,0,238.0294056001585,,,,,,,,,238.01717880018987,238.0294056001585,238.51528980000876,238.51531659998,238.5309059000574,243.52090320014395,"['f', 'p']","[2.102168400073424, 2.738797599915415]","[0.07563199987635016, 0.07291160011664033]",727798,001,2024-11-17_10h23.23.025,WholeReportMethod,2024.1.5,None,2024-11-17 10h23.37.735134 +0530,
43,0,43,0,243.53837179997936,,,,,,,,,243.52294250018895,243.53837179997936,244.0213880999945,244.02142320014536,244.03760910010897,249.02824290003628,"['u', 'd', 'a', 'o']","[1.1674542999826372, 1.9237652998417616, 2.1146535000298172, 2.5628198999911547]","[0.0726796998642385, 0.08617030014283955, 0.07406189991161227, 0.07050079992040992]",727798,001,2024-11-17_10h23.23.025,WholeReportMethod,2024.1.5,None,2024-11-17 10h23.37.735134 +0530,
44,0,44,0,249.04334560013376,,,,,,,,,249.0297846000176,249.04334560013376,249.5281878001988,249.52834130008705,249.5436283000745,254.51782410009764,"['x', 'z', 'n']","[1.3421495999209583, 2.9954733001068234, 3.170534099917859]","[0.09827400022186339, 0.09126459993422031, 0.08339220006018877]",727798,001,2024-11-17_10h23.23.025,WholeReportMethod,2024.1.5,None,2024-11-17 10h23.37.735134 +0530,
45,0,45,0,254.53285040007904,,,,,,,,,254.51943100010976,254.53285040007904,255.0171211999841,255.01714580017142,255.03171950019896,260.0220774000045,"['c', 'r', 'l', 'i']","[2.0437591997906566, 2.254832799779251, 2.7538317998405546, 2.9558641999028623]","[0.07327780011110008, 0.0673141002189368, 0.06247920007444918, 0.07238129992038012]",727798,001,2024-11-17_10h23.23.025,WholeReportMethod,2024.1.5,None,2024-11-17 10h23.37.735134 +0530,
46,0,46,0,260.0395015999675,,,,,,,,,260.0235190000385,260.0395015999675,260.5240652000066,260.52410749997944,260.538804900134,265.5170887999702,"['s', 'b', 'l', 'p']","[1.019982700003311, 1.458131300052628, 1.8896319000050426, 2.0688905001152307]","[0.10831420007161796, 0.07321020006202161, 0.0792072000913322, 0.08605349995195866]",727798,001,2024-11-17_10h23.23.025,WholeReportMethod,2024.1.5,None,2024-11-17 10h23.37.735134 +0530,
47,0,47,0,265.53213470010087,,,,,,,,,265.51981030008756,265.53213470010087,266.0265567000024,266.0265767001547,266.0475576000754,271.0165934001561,"['f', 's', 's', 'u']","[1.7150057998951524, 1.9407963000703603, 2.1091211000457406, 2.7190870998892933]","[0.08134890021756291, 0.07291490002535284, 0.08855900005437434, 0.07219680002890527]",727798,001,2024-11-17_10h23.23.025,WholeReportMethod,2024.1.5,None,2024-11-17 10h23.37.735134 +0530,
48,0,48,0,271.0331759999972,,,,,,,,,271.01755940006115,271.0331759999972,271.52054350008257,271.5206032001879,271.53462350019254,276.5244738000911,"['a', 'c', 'p']","[1.0100747998803854, 1.621577699901536, 2.1260094000026584]","[0.10836850013583899, 0.07579859998077154, 0.07651529996655881]",727798,001,2024-11-17_10h23.23.025,WholeReportMethod,2024.1.5,None,2024-11-17 10h23.37.735134 +0530,
49,0,49,0,276.5413750000298,,,,,,,,,276.52610020013526,276.5413750000298,277.02519000018947,277.02530800015666,277.0405833001714,282.0277627001051,"['l', 'v', 'm', 'j']","[1.1342722000554204, 1.5369820001069456, 1.9329345999285579, 2.2050775999668986]","[0.09936639992520213, 0.07644929992966354, 0.069576800102368, 0.07595110009424388]",727798,001,2024-11-17_10h23.23.025,WholeReportMethod,2024.1.5,None,2024-11-17 10h23.37.735134 +0530,
50,0,50,0,282.04700420005247,,,,,,,,,282.02897420013323,282.04700420005247,282.530935900053,282.53096300014295,282.5506710000336,287.518093300052,"['u', 'o', 'c', 'a']","[1.2752692999783903, 1.5343465998303145, 1.969933700049296, 2.3970712998416275]","[0.07562969997525215, 0.08451390010304749, 0.06942149996757507, 0.08434060006402433]",727798,001,2024-11-17_10h23.23.025,WholeReportMethod,2024.1.5,None,2024-11-17 10h23.37.735134 +0530,
51,0,51,0,287.53694420005195,,,,,,,,,287.5207380000502,287.53694420005195,288.0198487001471,288.0198852000758,288.03837710013613,293.0246531001758,"['w', 't', 'a', 'o']","[1.213905000127852, 1.8509069001302123, 2.0132605000399053, 2.4880670001730323]","[0.08475550008006394, 0.057943099876865745, 0.11914260010235012, 0.0693160998634994]",727798,001,2024-11-17_10h23.23.025,WholeReportMethod,2024.1.5,None,2024-11-17 10h23.37.735134 +0530,
52,0,52,0,293.0430727000348,,,,,,,,,293.02708650007844,293.0430727000348,293.52868330013007,293.52870770008303,293.54311379999854,298.51546140015125,"['t', 'l', 'o']","[0.9117809000890702, 1.4067653000820428, 2.36371639999561]","[0.07901039998978376, 0.07272769999690354, 0.06850669998675585]",727798,001,2024-11-17_10h23.23.025,WholeReportMethod,2024.1.5,None,2024-11-17 10h23.37.735134 +0530,
53,0,53,0,298.53310780017637,,,,,,,,,298.51695940014906,298.53310780017637,299.01609060005285,299.01611910015345,299.03297790000215,304.0216422001831,"['n', 'y', 'r', 'p']","[1.137958199949935, 1.442532300017774, 3.397898599971086, 3.6534079001285136]","[0.06768790003843606, 0.0695760000962764, 0.0801447001285851, 0.07145839999429882]",727798,001,2024-11-17_10h23.23.025,WholeReportMethod,2024.1.5,None,2024-11-17 10h23.37.735134 +0530,
54,0,54,0,304.03687000018544,,,,,,,,,304.02363100019284,304.03687000018544,304.5227308999747,304.5227578000631,304.53918560012244,309.5295759001747,"['l', 'x']","[1.6014191000722349, 2.0190161000937223]","[0.0758473000023514, 0.11287419986911118]",727798,001,2024-11-17_10h23.23.025,WholeReportMethod,2024.1.5,None,2024-11-17 10h23.37.735134 +0530,
55,0,55,0,309.54311840003356,,,,,,,,,309.5316700001713,309.54311840003356,310.0287187001668,310.0287437001243,310.04420280014165,315.0320482000243,"['c', 'r', 'p']","[1.3803866999223828, 2.73228029999882, 3.5678172998595983]","[0.09186489996500313, 0.08627049997448921, 0.0793072001542896]",727798,001,2024-11-17_10h23.23.025,WholeReportMethod,2024.1.5,None,2024-11-17 10h23.37.735134 +0530,
56,0,56,0,315.0497352001257,,,,,,,,,315.0336931999773,315.0497352001257,315.5212917001918,315.5213315000292,315.5333377001807,320.52356930007227,"['m', 'j']","[1.0098941000178456, 1.231039599981159]","[0.08204340003430843, 0.08883189992047846]",727798,001,2024-11-17_10h23.23.025,WholeReportMethod,2024.1.5,None,2024-11-17 10h23.37.735134 +0530,
57,0,57,0,320.5379065000452,,,,,,,,,320.5254629000556,320.5379065000452,321.02254150016233,321.02257640007883,321.0393433000427,326.0166656000074,"['s', 'r', 'e', 'k']","[0.8379053000826389, 1.2853289998602122, 1.5532887999434024, 1.89812899986282]","[0.10538169997744262, 0.07926080003380775, 0.09712589997798204, 0.06618429999798536]",727798,001,2024-11-17_10h23.23.025,WholeReportMethod,2024.1.5,None,2024-11-17 10h23.37.735134 +0530,
58,0,58,0,326.0318446001038,,,,,,,,,326.0189293001313,326.0318446001038,326.52968230005354,326.52971110004,326.5466063001659,331.5170158999972,"['z', 'e']","[1.0273349999915808, 1.5862110999878496]","[0.0818612000439316, 0.08599329995922744]",727798,001,2024-11-17_10h23.23.025,WholeReportMethod,2024.1.5,None,2024-11-17 10h23.37.735134 +0530,
59,0,59,0,331.53563900012523,,,,,,,,,331.5193427000195,331.53563900012523,332.01785850012675,332.0178847000934,332.0359677001834,337.0242362001445,"['r', 'u', 'g']","[1.1905877999961376, 1.8455314000602812, 2.2630761000327766]","[0.08622330008074641, 0.07881159987300634, 0.07327900012023747]",727798,001,2024-11-17_10h23.23.025,WholeReportMethod,2024.1.5,None,2024-11-17 10h23.37.735134 +0530,
60,0,60,0,337.0414219000377,,,,,,,,,337.0260437000543,337.0414219000377,337.524396300083,337.5244233000558,337.5455195000395,342.5313918001484,"['r', 'o', 'p', 'g']","[1.2369310001377016, 1.7988638000097126, 1.978321900125593, 2.5204727000091225]","[0.07012359984219074, 0.05299760005436838, 0.059329000068828464, 0.07301370007917285]",727798,001,2024-11-17_10h23.23.025,WholeReportMethod,2024.1.5,None,2024-11-17 10h23.37.735134 +0530,
61,0,61,0,342.54703400004655,,,,,,,,,342.5335266001057,342.54703400004655,343.02993090008385,343.0299546001479,343.04551840014756,348.0205079000443,"['b', 'c', 'q', 'u']","[1.290793600026518, 1.7281428999267519, 2.3541431999765337, 2.953191899927333]","[0.08429999998770654, 0.06223589996807277, 0.1018552000168711, 0.08935889997519553]",727798,001,2024-11-17_10h23.23.025,WholeReportMethod,2024.1.5,None,2024-11-17 10h23.37.735134 +0530,
62,0,62,0,348.03565710014664,,,,,,,,,348.02218700014055,348.03565710014664,348.5219243001193,348.5219473000616,348.5351840001531,353.52579230000265,"['c', 'i', 'n', 's']","[0.9840317000634968, 1.4864797999616712, 1.799636699957773, 2.1292260999325663]","[0.0858360999263823, 0.08220289996825159, 0.06848459993489087, 0.10250949999317527]",727798,001,2024-11-17_10h23.23.025,WholeReportMethod,2024.1.5,None,2024-11-17 10h23.37.735134 +0530,
63,0,63,0,353.54266440006904,,,,,,,,,353.5275709000416,353.54266440006904,354.0259806001559,354.02600060007535,354.0421085001435,359.01536360010505,"['j', 'i', 'o', 't']","[0.9374643999617547, 1.3011489999480546, 1.4743229998275638, 1.8208669000305235]","[0.07586949993856251, 0.0727576999925077, 0.07222490012645721, 0.08423589984886348]",727798,001,2024-11-17_10h23.23.025,WholeReportMethod,2024.1.5,None,2024-11-17 10h23.37.735134 +0530,
64,0,64,0,359.0315386999864,,,,,,,,,359.0169707001187,359.0315386999864,359.5155420000665,359.5155681001488,359.53181760013103,364.52028409997,"['z', 'k']","[1.9072455998975784, 2.1594936000183225]","[0.09291730006225407, 0.05787969985976815]",727798,001,2024-11-17_10h23.23.025,WholeReportMethod,2024.1.5,None,2024-11-17 10h23.37.735134 +0530,
65,0,65,0,364.53633749997243,,,,,,,,,364.5218259000685,364.53633749997243,365.0208743000403,365.0209939000197,365.0369704000186,370.02604640019126,"['l', 'y', 'x', 'a']","[1.2464972001034766, 1.6522828000597656, 2.0903831000905484, 2.2259174999780953]","[0.085735899861902, 0.065944500034675, 0.08604919980280101, 0.10038909991271794]",727798,001,2024-11-17_10h23.23.025,WholeReportMethod,2024.1.5,None,2024-11-17 10h23.37.735134 +0530,
66,0,66,0,370.0421737001743,,,,,,,,,370.0276864999905,370.0421737001743,370.52688600006513,370.5269293000456,370.54434560006484,375.5151200001128,"['g', 'i', 'g', 'b']","[2.393907400080934, 2.699826200027019, 3.005040799966082, 3.205634200014174]","[0.07088040001690388, 0.07049469999037683, 0.05906040011905134, 0.06966060004197061]",727798,001,2024-11-17_10h23.23.025,WholeReportMethod,2024.1.5,None,2024-11-17 10h23.37.735134 +0530,
67,0,67,0,375.53229020000435,,,,,,,,,375.51628880016506,375.53229020000435,376.0184516001027,376.01848120009527,376.03155650012195,381.02079370012507,"['i', 'g', 'u', 'o']","[1.01188510004431, 1.4772226000204682, 1.753465099958703, 2.111488200025633]","[0.07942389999516308, 0.08065959997475147, 0.07750959997065365, 0.07210019999183714]",727798,001,2024-11-17_10h23.23.025,WholeReportMethod,2024.1.5,None,2024-11-17 10h23.37.735134 +0530,
68,0,68,0,381.039562900085,,,,,,,,,381.0224960001651,381.039562900085,381.52314679999836,381.52318050013855,381.53856570017524,386.5302655000705,"['q', 'z', 'x']","[2.2529222001321614, 2.570425800047815, 3.8086000001057982]","[0.11757020000368357, 0.06366789992898703, 0.07864229986444116]",727798,001,2024-11-17_10h23.23.025,WholeReportMethod,2024.1.5,None,2024-11-17 10h23.37.735134 +0530,
69,0,69,0,386.54635740001686,,,,,,,,,386.5319005001802,386.54635740001686,387.02978079998866,387.0298109999858,387.0453763999976,392.0174720999785,"['g', 'e', 'v', 'a']","[1.3450078999157995, 1.613767699804157, 1.9896509998943657, 2.1075394998770207]","[0.07862069993279874, 0.05246520019136369, 0.05651589995250106, 0.09083779994398355]",727798,001,2024-11-17_10h23.23.025,WholeReportMethod,2024.1.5,None,2024-11-17 10h23.37.735134 +0530,
70,0,70,0,392.0344492001459,,,,,,,,,392.01986930007115,392.0344492001459,392.5191491001751,392.51924100006,392.5349110001698,397.52342650014907,"['h', 'c', 'd', 'r']","[3.297669699881226, 3.796846699900925, 4.472968599991873, 4.650227099889889]","[0.08181639993563294, 0.05960640008561313, 0.07943179993890226, 0.07495020003989339]",727798,001,2024-11-17_10h23.23.025,WholeReportMethod,2024.1.5,None,2024-11-17 10h23.37.735134 +0530,
71,0,71,0,397.54055550019257,,,,,,,,,397.52545420010574,397.54055550019257,398.0233556001913,398.0233794001397,398.0393257001415,403.03061370016076,"['h', 'e', 'q']","[1.7583795001264662, 2.0934191001579165, 2.763889000052586]","[0.09043519990518689, 0.07879960001446307, 0.10058470000512898]",727798,001,2024-11-17_10h23.23.025,WholeReportMethod,2024.1.5,None,2024-11-17 10h23.37.735134 +0530,
72,0,72,0,403.04643890005536,,,,,,,,,403.0321520001162,403.04643890005536,403.515430000145,403.51545389997773,403.53043800010346,408.51809490006417,"['g', 't', 'm', 'r']","[1.2465716998558491, 1.3974588999990374, 1.7249660999514163, 2.0339279000181705]","[0.056011600187048316, 0.06468369998037815, 0.08025219989940524, 0.07446349994279444]",727798,001,2024-11-17_10h23.23.025,WholeReportMethod,2024.1.5,None,2024-11-17 10h23.37.735134 +0530,
73,0,73,0,408.53500430006534,,,,,,,,,408.52123200008646,408.53500430006534,409.01882640016265,409.0188478999771,409.0350687999744,414.02487200009637,"['g', 'o', 'j', 't']","[1.0107193000148982, 1.4472052999772131, 1.8384820001665503, 2.523195300018415]","[0.07413710001856089, 0.06580580002628267, 0.06222119997255504, 0.06801320007070899]",727798,001,2024-11-17_10h23.23.025,WholeReportMethod,2024.1.5,None,2024-11-17 10h23.37.735134 +0530,
74,0,74,0,414.0420485001523,,,,,,,,,414.02675190009177,414.0420485001523,414.52507670014165,414.525123400148,414.5402897000313,419.530842800159,"['i', 't', 'w', 'c']","[0.9834397998638451, 1.3234071000479162, 1.9135481999255717, 2.3347306000068784]","[0.0952943000011146, 0.06534740002825856, 0.07141740014776587, 0.08521699998527765]",727798,001,2024-11-17_10h23.23.025,WholeReportMethod,2024.1.5,None,2024-11-17 10h23.37.735134 +0530,
75,0,75,0,419.54624370019883,,,,,,,,,419.5330966000911,419.54624370019883,420.0171999000013,420.0172359000426,420.0310361001175,425.0184651000891,"['e', 'y', 'm']","[1.3284211999271065, 1.848148499848321, 2.22524999990128]","[0.08592059998773038, 0.06203479995019734, 0.05016410001553595]",727798,001,2024-11-17_10h23.23.025,WholeReportMethod,2024.1.5,None,2024-11-17 10h23.37.735134 +0530,
76,0,76,0,425.03604490007274,,,,,,,,,425.01963880006224,425.03604490007274,425.52082230011,425.520846700063,425.5403909999877,430.52614210010506,"['e', 'd', 'k', 'a']","[1.1251077998895198, 1.2920688998419791, 1.773968799971044, 1.9519962000194937]","[0.0735933999530971, 0.07255440019071102, 0.06564430007711053, 0.10392039990983903]",727798,001,2024-11-17_10h23.23.025,WholeReportMethod,2024.1.5,None,2024-11-17 10h23.37.735134 +0530,
77,0,77,0,430.5443126000464,,,,,,,,,430.5279112001881,430.5443126000464,431.0271652000956,431.0271873001475,431.0434775000904,436.0182468001731,"['z', 'o', 'c']","[1.1290002998430282, 2.0482846999075264, 2.5601738998666406]","[0.07205590000376105, 0.07154239993542433, 0.08263640012592077]",727798,001,2024-11-17_10h23.23.025,WholeReportMethod,2024.1.5,None,2024-11-17 10h23.37.735134 +0530,
78,0,78,0,436.03147669998,,,,,,,,,436.0204585001338,436.03147669998,436.51652680011466,436.51655420009047,436.5332774000708,441.52136390004307,"['y', 't', 'c', 'q']","[0.967509200097993, 1.1880290999542922, 1.5830198999028653, 2.010163800092414]","[0.0855675998609513, 0.07246790011413395, 0.06305360002443194, 0.11174779990687966]",727798,001,2024-11-17_10h23.23.025,WholeReportMethod,2024.1.5,None,2024-11-17 10h23.37.735134 +0530,
79,0,79,0,441.5384072000161,,,,,,,,,441.5232820000965,441.5384072000161,442.0212820000015,442.0213028001599,442.03763290005736,447.02874130010605,"['d', 'z']","[3.821304799988866, 3.9875054999720305]","[0.0782965999096632, 0.08299169992096722]",727798,001,2024-11-17_10h23.23.025,WholeReportMethod,2024.1.5,None,2024-11-17 10h23.37.735134 +0530,
80,0,80,0,447.04511580010876,,,,,,,,,447.0303111001849,447.04511580010876,447.5290318999905,447.52905490016565,447.5459038000554,452.51887060003355,"['b', 'q', 'r']","[1.1802464998327196, 2.3715077999513596, 2.7025337000377476]","[0.0685948000755161, 0.108106599887833, 0.07989689987152815]",727798,001,2024-11-17_10h23.23.025,WholeReportMethod,2024.1.5,None,2024-11-17 10h23.37.735134 +0530,
81,0,81,0,452.5364386001602,,,,,,,,,452.52181130019017,452.5364386001602,453.0161168000195,453.0161350001581,453.03381130006164,458.02323280018754,"['o', 'p', 't', 'j']","[0.9751394998747855, 1.188813499873504, 1.6255852000322193, 2.2594157999847084]","[0.08635240001603961, 0.08929650019854307, 0.059392099967226386, 0.07741470006294549]",727798,001,2024-11-17_10h23.23.025,WholeReportMethod,2024.1.5,None,2024-11-17 10h23.37.735134 +0530,
82,0,82,0,458.0396191000473,,,,,,,,,458.02504480001517,458.0396191000473,458.523441700032,458.52347150002606,458.54084200016223,463.528476000065,"['i', 'q', 'q', 'n']","[0.9839966001454741, 1.5469208001159132, 1.7319720000959933, 2.2760284000542015]","[0.08906729985028505, 0.10198049992322922, 0.10348129994235933, 0.0745705000590533]",727798,001,2024-11-17_10h23.23.025,WholeReportMethod,2024.1.5,None,2024-11-17 10h23.37.735134 +0530,
83,0,83,0,463.54532490018755,,,,,,,,,463.5294743999839,463.54532490018755,464.0284304001834,464.02846010006033,464.050192900002,469.0172882999759,"['h', 'z', 'y', 'l']","[1.4759196999948472, 1.7669195998460054, 2.273146899882704, 2.7827967999037355]","[0.07897889986634254, 0.08362120017409325, 0.06557350000366569, 0.059404300060123205]",727798,001,2024-11-17_10h23.23.025,WholeReportMethod,2024.1.5,None,2024-11-17 10h23.37.735134 +0530,
84,0,84,0,469.03456000005826,,,,,,,,,469.0186135000549,469.03456000005826,469.5194672001526,469.5194945000112,469.53500630008057,474.52520060003735,"['j', 'e', 'i', 'd']","[1.1893460999708623, 1.5862609001342207, 1.8242275000084192, 2.0126521000638604]","[0.08357310015708208, 0.08399059996008873, 0.08103550015948713, 0.08370959991589189]",727798,001,2024-11-17_10h23.23.025,WholeReportMethod,2024.1.5,None,2024-11-17 10h23.37.735134 +0530,
85,0,85,0,474.54381050006486,,,,,,,,,474.5275546000339,474.54381050006486,475.02850430016406,475.02852650010027,475.0427451999858,480.0295202000998,"['a', 's', 't', 'q']","[0.7297569999936968, 0.9523368999361992, 1.209420499857515, 1.5232079999987036]","[0.10728279990144074, 0.08606370002962649, 0.08070829999633133, 0.08546139998361468]",727798,001,2024-11-17_10h23.23.025,WholeReportMethod,2024.1.5,None,2024-11-17 10h23.37.735134 +0530,
86,0,86,0,480.0467589001637,,,,,,,,,480.0314567000605,480.0467589001637,480.51827380014583,480.51830350002274,480.5306948001962,485.519761600066,"['p', 't', 'v', 'm']","[1.2095943000167608, 2.227853100048378, 2.450964800082147, 2.9164758999831975]","[0.07139829988591373, 0.06597670004703104, 0.06892260001040995, 0.05926900007762015]",727798,001,2024-11-17_10h23.23.025,WholeReportMethod,2024.1.5,None,2024-11-17 10h23.37.735134 +0530,
87,0,87,0,485.5363851999864,,,,,,,,,485.5212241001427,485.5363851999864,486.022118100198,486.0221481001936,486.03758580004796,491.0269369999878,"['i', 'w', 'v', 'u']","[0.9038344000000507, 1.4405215999577194, 2.2088055999483913, 2.548194099916145]","[0.0759729000274092, 0.12336770002730191, 0.10760400001890957, 0.07277490012347698]",727798,001,2024-11-17_10h23.23.025,WholeReportMethod,2024.1.5,None,2024-11-17 10h23.37.735134 +0530,
88,0,88,0,491.04443120001815,,,,,,,,,491.0289996000938,491.04443120001815,491.5291357000824,491.529161100043,491.543401400093,496.5184413001407,"['t', 'u', 'y', 'i']","[0.8633723999373615, 1.1780884999316186, 1.4517804000061005, 1.8872948999051005]","[0.0723645999096334, 0.07763070007786155, 0.06531159998849034, 0.06687940005213022]",727798,001,2024-11-17_10h23.23.025,WholeReportMethod,2024.1.5,None,2024-11-17 10h23.37.735134 +0530,
89,0,89,0,496.5338373000268,,,,,,,,,496.52057750010863,496.5338373000268,497.01596019999124,497.0159826001618,497.031852300046,502.0210947000887,"['x', 't', 'c']","[1.12182809994556, 1.4984094998799264, 2.0411977998446673]","[0.11171309999190271, 0.0820285000372678, 0.06826340011321008]",727798,001,2024-11-17_10h23.23.025,WholeReportMethod,2024.1.5,None,2024-11-17 10h23.37.735134 +0530,
90,0,90,0,502.037364799995,,,,,,,,,502.0227809001226,502.037364799995,502.5239211001899,502.5239483001642,502.5417905000504,507.528177900007,"['z', 'i', 'j', 'e']","[0.7746685999445617, 1.094820899888873, 1.3402666999027133, 1.6305896998383105]","[0.11267319996841252, 0.08342569996602833, 0.06264870008453727, 0.08167620003223419]",727798,001,2024-11-17_10h23.23.025,WholeReportMethod,2024.1.5,None,2024-11-17 10h23.37.735134 +0530,
91,0,91,0,507.54520840011537,,,,,,,,,507.5299427001737,507.54520840011537,508.02710970002227,508.02712680003606,508.04450550000183,513.0164701000322,"['d', 'l', 'w']","[1.6025363998487592, 2.2047439999878407, 2.7169890999794006]","[0.06549159996211529, 0.06162659986875951, 0.1116959999781102]",727798,001,2024-11-17_10h23.23.025,WholeReportMethod,2024.1.5,None,2024-11-17 10h23.37.735134 +0530,
92,0,92,0,513.0329040000215,,,,,,,,,513.0178449000232,513.0329040000215,513.5166633999906,513.516684200149,513.5330070001073,518.5236327999737,"['t', 'r', 'v', 'a']","[1.0294539998285472, 1.2186386999674141, 1.5550396000035107, 1.6973947999067605]","[0.07565930020064116, 0.07374079991132021, 0.06486839987337589, 0.10217180009931326]",727798,001,2024-11-17_10h23.23.025,WholeReportMethod,2024.1.5,None,2024-11-17 10h23.37.735134 +0530,
93,0,93,0,518.5396507000551,,,,,,,,,518.5262110000476,518.5396507000551,519.0230119000189,519.0230358999688,519.0417872001417,524.0312705000397,"['n', 'b', 'i']","[2.964905799832195, 3.1546746999956667, 3.5636609999928623]","[0.07721020001918077, 0.06119699985720217, 0.06871709995903075]",727798,001,2024-11-17_10h23.23.025,WholeReportMethod,2024.1.5,None,2024-11-17 10h23.37.735134 +0530,
94,0,94,0,524.0448078000918,,,,,,,,,524.0326147000305,524.0448078000918,524.5328707001172,524.5328995001037,524.545433799969,529.5191569000017,"['z', 'p']","[1.667313100071624, 1.9979181999806315]","[0.09601689991541207, 0.08273610007017851]",727798,001,2024-11-17_10h23.23.025,WholeReportMethod,2024.1.5,None,2024-11-17 10h23.37.735134 +0530,
95,0,95,0,529.5370317001361,,,,,,,,,529.5209449999966,529.5370317001361,530.0203358000144,530.0203651001211,530.0365758000407,535.0239075999707,"['b', 'h', 'i']","[1.1203622000757605, 1.2800688000861555, 1.900308300042525]","[0.08430509991012514, 0.08777359989471734, 0.07788700005039573]",727798,001,2024-11-17_10h23.23.025,WholeReportMethod,2024.1.5,None,2024-11-17 10h23.37.735134 +0530,
96,0,96,0,535.041062500095,,,,,,,,,535.0268147001043,535.041062500095,535.5261545001995,535.5262134000659,535.5427200000267,540.5164692001417,"['d', 'b', 'i', 'u']","[1.6863354998640716, 1.8721109998878092, 2.1201350998599082, 2.4423133998643607]","[0.060392600018531084, 0.06538380007259548, 0.06280250009149313, 0.07273899996653199]",727798,001,2024-11-17_10h23.23.025,WholeReportMethod,2024.1.5,None,2024-11-17 10h23.37.735134 +0530,
97,0,97,0,540.5314601999708,,,,,,,,,540.5189480001573,540.5314601999708,541.0154120000079,541.0154299000278,541.0312481999863,546.0204632000532,"['h', 'x', 'o', 'j']","[2.322298200102523, 2.9334474001079798, 3.292749600019306, 3.7077078002039343]","[0.07593380007892847, 0.10473069990985096, 0.06524610007181764, 0.061455699848011136]",727798,001,2024-11-17_10h23.23.025,WholeReportMethod,2024.1.5,None,2024-11-17 10h23.37.735134 +0530,
98,0,98,0,546.0369367001113,,,,,,,,,546.0221785001922,546.0369367001113,546.5237142001279,546.5237557000946,546.5375258000568,551.5264569001738,"['g', 'k', 'x']","[2.143025899771601, 2.6268641999922693, 3.7554520999547094]","[0.06967980018816888, 0.0785656999796629, 0.07505559991113842]",727798,001,2024-11-17_10h23.23.025,WholeReportMethod,2024.1.5,None,2024-11-17 10h23.37.735134 +0530,
99,0,99,0,551.5422768001445,,,,,,,,,551.5284643999767,551.5422768001445,552.0285108000971,552.0286665000021,552.0414244001731,557.0150103999767,"['y', 'i', 'v', 'a']","[0.9917762998957187, 1.2626082999631763, 1.6798215999733657, 1.8372048998717219]","[0.07303610001690686, 0.0588298998773098, 0.06653399998322129, 0.08059200015850365]",727798,001,2024-11-17_10h23.23.025,WholeReportMethod,2024.1.5,None,2024-11-17 10h23.37.735134 +0530,
