trials.thisRepN,trials.thisTrialN,trials.thisN,trials.thisIndex,thisRow.t,notes,introduction.started,text.started,key_resp.started,introduction.stopped,key_resp.keys,key_resp.rt,key_resp.duration,trial.started,letter_grid.started,trial.stopped,response_routine.started,response.started,response_routine.stopped,response.keys,response.rt,response.duration,participant,session,date,expName,psychopyVersion,frameRate,expStart,
,,,,,,0.0031097999308258295,0.019368999870494008,0.019368999870494008,25.12632769998163,space,25.08653869992122,None,,,,,,,,,,873911,001,2024-11-18_09h49.14.957,WholeReportMethod,2024.1.5,None,2024-11-18 09h49.21.717233 +0530,
0,0,0,0,25.15575769986026,,,,,,,,,25.130972999846563,25.15575769986026,25.631603099871427,25.63163199997507,25.64753589988686,30.636324199847877,"['s', 'p', 'x', 't']","[1.5748594000469893, 2.209090700140223, 2.853776300093159, 3.4214630001224577]","[0.09764380007982254, 0.12847590004093945, 0.12486310000531375, 0.11557750008068979]",873911,001,2024-11-18_09h49.14.957,WholeReportMethod,2024.1.5,None,2024-11-18 09h49.21.717233 +0530,
1,0,1,0,30.65623929980211,,,,,,,,,30.63850379991345,30.65623929980211,31.136605799896643,31.136625699931756,31.15323689999059,36.127031799871475,"['p', 'b', 'f', 'g']","[1.7287677000276744, 2.465301000047475, 4.494270800147206, 4.758457000134513]","[0.12762439996004105, 0.12768459995277226, 0.09250929998233914, 0.10909959999844432]",873911,001,2024-11-18_09h49.14.957,WholeReportMethod,2024.1.5,None,2024-11-18 09h49.21.717233 +0530,
2,0,2,0,36.24607439991087,,,,,,,,,36.13244349998422,36.24607439991087,36.626893899869174,36.62698149983771,36.64391179988161,41.63211409980431,"['z', 'p', 'g']","[1.5440863000694662, 3.5601854999549687, 3.988706700038165]","[0.15392389986664057, 0.10168129997327924, 0.0927313999272883]",873911,001,2024-11-18_09h49.14.957,WholeReportMethod,2024.1.5,None,2024-11-18 09h49.21.717233 +0530,
3,0,3,0,41.64977499982342,,,,,,,,,41.63491619983688,41.64977499982342,42.132168899988756,42.13219099980779,42.149208599934354,47.13821260002442,"['p', 't', 'b', 'j']","[1.3630861998535693, 1.856395100010559, 2.3512936998158693, 2.8211461999453604]","[0.11541610001586378, 0.08545439993031323, 0.11840300005860627, 0.11850619991309941]",873911,001,2024-11-18_09h49.14.957,WholeReportMethod,2024.1.5,None,2024-11-18 09h49.21.717233 +0530,
4,0,4,0,47.15681679989211,,,,,,,,,47.14098299993202,47.15681679989211,47.638729400001466,47.638770799851045,47.65508609986864,52.627653599949554,"['m', 's', 'h', 'h']","[1.1990982999559492, 1.7473236001096666, 2.653093900065869, 2.974033599952236]","[0.11015840014442801, 0.12362780002877116, 0.09578499989584088, 0.10642349999397993]",873911,001,2024-11-18_09h49.14.957,WholeReportMethod,2024.1.5,None,2024-11-18 09h49.21.717233 +0530,
5,0,5,0,52.64596199989319,,,,,,,,,52.63059289986268,52.64596199989319,53.128376399865374,53.12841399991885,53.144820999819785,58.13378979987465,"['a', 'j', 'h']","[1.3170201999600977, 2.564722300041467, 2.920194099890068]","[0.15594480000436306, 0.12639399990439415, 0.11305160005576909]",873911,001,2024-11-18_09h49.14.957,WholeReportMethod,2024.1.5,None,2024-11-18 09h49.21.717233 +0530,
6,0,6,0,58.15224359999411,,,,,,,,,58.136487799929455,58.15224359999411,58.63391330000013,58.633935099933296,58.65060879988596,63.640228499891236,"['z', 'd', 'l']","[2.0447482999879867, 2.7117564999498427, 3.7842091999482363]","[0.13425810006447136, 0.1452759001404047, 0.11136960005387664]",873911,001,2024-11-18_09h49.14.957,WholeReportMethod,2024.1.5,None,2024-11-18 09h49.21.717233 +0530,
7,0,7,0,63.659398399991915,,,,,,,,,63.64313580002636,63.659398399991915,64.14107629982755,64.14110469981097,64.15693099983037,69.12968559982255,"['m', 'n', 'm', 'z']","[1.8643406999763101, 2.3287597000598907, 2.6428600000217557, 3.4003312001004815]","[0.11880850000306964, 0.0991229999344796, 0.11496310005895793, 0.13486979994922876]",873911,001,2024-11-18_09h49.14.957,WholeReportMethod,2024.1.5,None,2024-11-18 09h49.21.717233 +0530,
8,0,8,0,69.15001619979739,,,,,,,,,69.13271519984119,69.15001619979739,69.62974169990048,69.62977979984134,69.64606069982983,74.63620199984871,"['j', 'h', 'q']","[1.9098456997890025, 2.6727429998572916, 3.0459104999899864]","[0.128319300012663, 0.11505790008231997, 0.16469909995794296]",873911,001,2024-11-18_09h49.14.957,WholeReportMethod,2024.1.5,None,2024-11-18 09h49.21.717233 +0530,
9,0,9,0,74.65802179998718,,,,,,,,,74.64066639984958,74.65802179998718,75.13626790000126,75.1363199998159,75.15252489992417,80.14155639987439,"['b', 'h', 'y', 'q']","[1.7047237998340279, 2.0169157998170704, 3.1141138998791575, 3.5145107998978347]","[0.10528160003013909, 0.10783410002477467, 0.10788689996115863, 0.1635012999176979]",873911,001,2024-11-18_09h49.14.957,WholeReportMethod,2024.1.5,None,2024-11-18 09h49.21.717233 +0530,
10,0,10,0,80.15864149993286,,,,,,,,,80.14404419995844,80.15864149993286,80.64226979995146,80.64229969982989,80.65874499990605,85.63137570000254,"['z', 'y', 'c']","[1.525691700167954, 2.0798311000689864, 3.5344835000578314]","[0.1436623998451978, 0.10513369995169342, 0.11569619993679225]",873911,001,2024-11-18_09h49.14.957,WholeReportMethod,2024.1.5,None,2024-11-18 09h49.21.717233 +0530,
11,0,11,0,85.64921869989485,,,,,,,,,85.6341660998296,85.64921869989485,86.13182879984379,86.1318693999201,86.14808989991434,91.13669730001129,"['f', 'd', 'f', 'g']","[1.9203945000190288, 2.267697700066492, 2.5101554000284523, 2.801885599968955]","[0.11202110000886023, 0.1235642998944968, 0.10397620010189712, 0.11530120018869638]",873911,001,2024-11-18_09h49.14.957,WholeReportMethod,2024.1.5,None,2024-11-18 09h49.21.717233 +0530,
12,0,12,0,91.1529405999463,,,,,,,,,91.13872559997253,91.1529405999463,91.63711879984476,91.63714029989205,91.65340709988959,96.64283959986642,"['m', 'm', 'e', 'z']","[1.3686569000128657, 1.6058547999709845, 2.2025363999418914, 3.422289500012994]","[0.1054936998989433, 0.1054934998974204, 0.08927579992450774, 0.15183129999786615]",873911,001,2024-11-18_09h49.14.957,WholeReportMethod,2024.1.5,None,2024-11-18 09h49.21.717233 +0530,
13,0,13,0,96.66055289981887,,,,,,,,,96.64562949980609,96.66055289981887,97.12684809998609,97.1268699998036,97.14216499985196,102.13216889998876,"['z', 'q', 'd', 'f']","[1.62368299998343, 2.3163924000691622, 3.126085099996999, 3.4032322999555618]","[0.14872059994377196, 0.14594839978963137, 0.09545869985595345, 0.09930950007401407]",873911,001,2024-11-18_09h49.14.957,WholeReportMethod,2024.1.5,None,2024-11-18 09h49.21.717233 +0530,
14,0,14,0,102.15038599981926,,,,,,,,,102.13518749992363,102.15038599981926,102.63317079981789,102.63320999988355,102.6498355998192,107.63794629997574,"['c', 'o', 'v', 'y']","[2.1654074999969453, 2.5854952998925, 3.1035674999002367, 3.734726299997419]","[0.14520989987067878, 0.1137806000187993, 0.10538940015248954, 0.10558369988575578]",873911,001,2024-11-18_09h49.14.957,WholeReportMethod,2024.1.5,None,2024-11-18 09h49.21.717233 +0530,
15,0,15,0,107.65582879981957,,,,,,,,,107.64077789988369,107.65582879981957,108.13886950002052,108.13892679987475,108.15541010000743,113.12758219987154,"['x', 'q', 'm', 'i']","[1.721002300037071, 2.3093954001087695, 2.866948900045827, 3.2709089000709355]","[0.0886739999987185, 0.14443330001085997, 0.11375460005365312, 0.09570039995014668]",873911,001,2024-11-18_09h49.14.957,WholeReportMethod,2024.1.5,None,2024-11-18 09h49.21.717233 +0530,
16,0,16,0,113.14572859997861,,,,,,,,,113.13034299993888,113.14572859997861,113.62872339994647,113.62876309989952,113.64611219987273,118.63362979982048,"['i', 'c']","[2.6818661000579596, 3.3233356000855565]","[0.11538939992897213, 0.15504470001906157]",873911,001,2024-11-18_09h49.14.957,WholeReportMethod,2024.1.5,None,2024-11-18 09h49.21.717233 +0530,
17,0,17,0,118.64971119980328,,,,,,,,,118.6364247999154,118.64971119980328,119.13453419995494,119.13459569984116,119.15119179990143,124.1404797998257,"['x', 'u', 'c']","[2.0690927000250667, 2.801606100052595, 3.7902291999198496]","[0.13925660005770624, 0.1146843999158591, 0.11253829998895526]",873911,001,2024-11-18_09h49.14.957,WholeReportMethod,2024.1.5,None,2024-11-18 09h49.21.717233 +0530,
18,0,18,0,124.15722309984267,,,,,,,,,124.14317209995352,124.15722309984267,124.6405007999856,124.64055359992199,124.65695229987614,129.6296595998574,"['i', 'e', 'w', 'm']","[2.425296099856496, 3.2322911999654025, 3.908886400051415, 4.710462199989706]","[0.09972330019809306, 0.10863779997453094, 0.14713509986177087, 0.08147699991241097]",873911,001,2024-11-18_09h49.14.957,WholeReportMethod,2024.1.5,None,2024-11-18 09h49.21.717233 +0530,
19,0,19,0,129.6471569999121,,,,,,,,,129.6326093999669,129.6471569999121,130.12982929986902,130.12988030002452,130.1462664999999,135.1352470999118,"['b', 'd', 'p', 'u']","[3.147721500135958, 3.6084119000006467, 4.207959100138396, 4.604709699982777]","[0.12398929987102747, 0.08948610001243651, 0.08980479999445379, 0.07642990001477301]",873911,001,2024-11-18_09h49.14.957,WholeReportMethod,2024.1.5,None,2024-11-18 09h49.21.717233 +0530,
20,0,20,0,135.15325709991157,,,,,,,,,135.13802800001577,135.15325709991157,135.63656519982032,135.63659519981593,135.65239119995385,140.64216029993258,"['a', 'e', 'z', 'q']","[1.4968691000249237, 1.7929408999625593, 2.6905839999672025, 3.1306918000336736]","[0.12831280007958412, 0.1158058000728488, 0.11218080017715693, 0.13499250006861985]",873911,001,2024-11-18_09h49.14.957,WholeReportMethod,2024.1.5,None,2024-11-18 09h49.21.717233 +0530,
21,0,21,0,140.657279699808,,,,,,,,,140.64455419988371,140.657279699808,141.14231659984216,141.1423503998667,141.15870019979775,146.13104629982263,"['b', 'd', 'k', 'w']","[2.8057977000717074, 3.3532499000430107, 3.9622271000407636, 4.632610500091687]","[0.12156999995931983, 0.1445484000723809, 0.10077119991183281, 0.08567039994522929]",873911,001,2024-11-18_09h49.14.957,WholeReportMethod,2024.1.5,None,2024-11-18 09h49.21.717233 +0530,
22,0,22,0,146.14824459981173,,,,,,,,,146.13384779985063,146.14824459981173,146.63148440001532,146.63152029993944,146.6480700999964,151.63678139983676,"['b', 'f', 'b', 'k']","[2.3436400000937283, 2.7652883001137525, 3.092081000097096, 3.858772700186819]","[0.12003370001912117, 0.11704779998399317, 0.1346716999541968, 0.10389869986101985]",873911,001,2024-11-18_09h49.14.957,WholeReportMethod,2024.1.5,None,2024-11-18 09h49.21.717233 +0530,
23,0,23,0,151.65468969987705,,,,,,,,,151.64007299998775,151.65468969987705,152.1375724999234,152.13761269999668,152.15373759996146,157.1265318999067,"['r', 'v', 'k', 'j']","[1.575627500191331, 2.0603713002055883, 2.903524100081995, 3.251442400040105]","[0.09794819983653724, 0.10428879992105067, 0.10735250008292496, 0.09952890011481941]",873911,001,2024-11-18_09h49.14.957,WholeReportMethod,2024.1.5,None,2024-11-18 09h49.21.717233 +0530,
24,0,24,0,157.14459739997983,,,,,,,,,157.12897099996917,157.14459739997983,157.62686889991164,157.62691319989972,157.64334479998797,162.63250259985216,"['c', 'q', 'c', 'd']","[1.9622476999647915, 2.5271171999629587, 2.958731999853626, 3.8204675999004394]","[0.11603690008632839, 0.13725359993986785, 0.12250150018371642, 0.13964530010707676]",873911,001,2024-11-18_09h49.14.957,WholeReportMethod,2024.1.5,None,2024-11-18 09h49.21.717233 +0530,
25,0,25,0,162.64829299994744,,,,,,,,,162.63471059990115,162.64829299994744,163.13280479982495,163.1328424999956,163.1491592999082,168.13822830002755,"['n', 'n', 'z', 'c']","[1.8681591001804918, 2.1778941000811756, 2.6549741001799703, 3.0994704000186175]","[0.1078579998575151, 0.10228800005279481, 0.12862069997936487, 0.11530870012938976]",873911,001,2024-11-18_09h49.14.957,WholeReportMethod,2024.1.5,None,2024-11-18 09h49.21.717233 +0530,
26,0,26,0,168.15548589988612,,,,,,,,,168.14066789997742,168.15548589988612,168.63933429983445,168.6394078999292,168.6555816999171,173.62757029989734,"['r', 's', 'u', 'n']","[1.4822802999988198, 1.8616129998117685, 2.2900008999276906, 2.711418999824673]","[0.11273459997028112, 0.1464457002002746, 0.10222429991699755, 0.09566680015996099]",873911,001,2024-11-18_09h49.14.957,WholeReportMethod,2024.1.5,None,2024-11-18 09h49.21.717233 +0530,
27,0,27,0,173.64561959984712,,,,,,,,,173.63035240001045,173.64561959984712,174.1283139998559,174.12837389996275,174.14476759987883,179.13401829986833,"['y', 'w', 's', 's']","[2.110171200009063, 2.6450181000400335, 3.044976099859923, 3.3880987998563796]","[0.1148760998621583, 0.11276429984718561, 0.10504120006226003, 0.11261830013245344]",873911,001,2024-11-18_09h49.14.957,WholeReportMethod,2024.1.5,None,2024-11-18 09h49.21.717233 +0530,
28,0,28,0,179.14983909996226,,,,,,,,,179.13689069985412,179.14983909996226,179.63458029995672,179.6346189000178,179.6507700998336,184.6400893998798,"['q', 'n', 'u']","[1.5614399001933634, 2.087491200072691, 2.6525715000461787]","[0.1495916999410838, 0.09767109993845224, 0.11136740003712475]",873911,001,2024-11-18_09h49.14.957,WholeReportMethod,2024.1.5,None,2024-11-18 09h49.21.717233 +0530,
29,0,29,0,184.65748499985784,,,,,,,,,184.6429430998396,184.65748499985784,185.1405030998867,185.1405489000026,185.15703019988723,190.1295630999375,"['v', 'a', 'n', 'z']","[2.3330675000324845, 2.698886200087145, 3.2768683000467718, 3.9890080001205206]","[0.11540530016645789, 0.15448280004784465, 0.11052149999886751, 0.15981259988620877]",873911,001,2024-11-18_09h49.14.957,WholeReportMethod,2024.1.5,None,2024-11-18 09h49.21.717233 +0530,
30,0,30,0,190.1492498998996,,,,,,,,,190.13432569988072,190.1492498998996,190.62975099985488,190.6297877000179,190.64598389994353,195.63528449996375,"['m', 'j', 'c', 'z']","[1.982078499859199, 2.3311240999028087, 2.8988399000372738, 3.494692699983716]","[0.10003029997460544, 0.12490870011970401, 0.10247499984689057, 0.14207890001125634]",873911,001,2024-11-18_09h49.14.957,WholeReportMethod,2024.1.5,None,2024-11-18 09h49.21.717233 +0530,
31,0,31,0,195.6522696998436,,,,,,,,,195.63854409987107,195.6522696998436,196.13621479994617,196.13626689999364,196.15355889988132,201.14125559991226,"['h', 'y', 'q']","[2.26831840001978, 3.6006219999399036, 4.332751999842003]","[0.11828649998642504, 0.1213487999048084, 0.17492480017244816]",873911,001,2024-11-18_09h49.14.957,WholeReportMethod,2024.1.5,None,2024-11-18 09h49.21.717233 +0530,
32,0,32,0,201.15933860000223,,,,,,,,,201.1440263998229,201.15933860000223,201.6417312999256,201.6418083999306,201.65831169998273,206.6305759998504,"['t', 'l', 'y', 'f']","[2.2247085999697447, 2.817102300003171, 4.081645299913362, 4.504164000041783]","[0.09554539993405342, 0.1027492000721395, 0.10129200015217066, 0.10162499989382923]",873911,001,2024-11-18_09h49.14.957,WholeReportMethod,2024.1.5,None,2024-11-18 09h49.21.717233 +0530,
33,0,33,0,206.64875069982372,,,,,,,,,206.63323679985479,206.64875069982372,207.13124629994854,207.13127749995328,207.14754599984735,212.13686540001072,"['j', 'y', 'u', 'k']","[1.7200174999888986, 2.4222150000277907, 3.234611500054598, 4.719539199955761]","[0.11240540002472699, 0.11767289997078478, 0.11213620007038116, 0.0922825001180172]",873911,001,2024-11-18_09h49.14.957,WholeReportMethod,2024.1.5,None,2024-11-18 09h49.21.717233 +0530,
34,0,34,0,212.15444709989242,,,,,,,,,212.13994689984247,212.15444709989242,212.63745099981315,212.63748359982856,212.65410269983113,217.64297779998742,"['x', 'j']","[2.0724023999646306, 2.8627476000692695]","[0.10805130004882812, 0.11330530000850558]",873911,001,2024-11-18_09h49.14.957,WholeReportMethod,2024.1.5,None,2024-11-18 09h49.21.717233 +0530,
35,0,35,0,217.66150229983032,,,,,,,,,217.64574059983715,217.66150229983032,218.12678939988837,218.12681739986874,218.14294229983352,223.1323557998985,"['q', 'o', 'o', 'm']","[1.7025965000502765, 2.4056331999599934, 2.6192465000785887, 2.9664119000080973]","[0.14237109990790486, 0.09398110001347959, 0.08898769994266331, 0.11511850007809699]",873911,001,2024-11-18_09h49.14.957,WholeReportMethod,2024.1.5,None,2024-11-18 09h49.21.717233 +0530,
36,0,36,0,223.15015629981644,,,,,,,,,223.13503519981168,223.15015629981644,223.63293659989722,223.63297439995222,223.64984009996988,228.63817909988575,"['c', 'p', 'h', 'o']","[1.921413900097832, 2.3750899001024663, 2.865072099957615, 3.2739897000137717]","[0.13161109993234277, 0.11388989980332553, 0.12210829998366535, 0.12371800001710653]",873911,001,2024-11-18_09h49.14.957,WholeReportMethod,2024.1.5,None,2024-11-18 09h49.21.717233 +0530,
37,0,37,0,228.65557549986988,,,,,,,,,228.64144229982048,228.65557549986988,229.13907309994102,229.1391307997983,229.1556102000177,234.12704169983044,"['b', 'f', 'w', 'n']","[1.9823274998925626, 2.809005199931562, 3.3605806999839842, 4.054823599988595]","[0.11885299999266863, 0.10421020002104342, 0.1340276999399066, 0.12154739978723228]",873911,001,2024-11-18_09h49.14.957,WholeReportMethod,2024.1.5,None,2024-11-18 09h49.21.717233 +0530,
38,0,38,0,234.14366870000958,,,,,,,,,234.12821919983253,234.14366870000958,234.62821599980816,234.62825259985402,234.64492669980973,239.63472169986926,"['z', 'y', 'a', 'e']","[1.5646624001674354, 2.0985650001093745, 2.560289300046861, 2.930202899966389]","[0.14932069997303188, 0.10873680002987385, 0.13780119991861284, 0.12428440013900399]",873911,001,2024-11-18_09h49.14.957,WholeReportMethod,2024.1.5,None,2024-11-18 09h49.21.717233 +0530,
39,0,39,0,239.64935199986212,,,,,,,,,239.63779289997183,239.64935199986212,240.13451069989242,240.1345474999398,240.15077329985797,245.14004999981262,"['l', 'c', 'c', 'd']","[1.4518810999579728, 2.1036986000835896, 2.323141099885106, 2.678329800022766]","[0.10619770013727248, 0.11220309999771416, 0.10984390019439161, 0.12956649996340275]",873911,001,2024-11-18_09h49.14.957,WholeReportMethod,2024.1.5,None,2024-11-18 09h49.21.717233 +0530,
40,0,40,0,245.15757249994203,,,,,,,,,245.14275339990854,245.15757249994203,245.6406986999791,245.64072899986058,245.65678739990108,250.63034379994497,"['k', 'd', 't', 'd']","[2.173649000003934, 2.6457055998034775, 3.390247699804604, 3.631377700017765]","[0.12521109986118972, 0.16125670005567372, 0.12697960017248988, 0.13721189997158945]",873911,001,2024-11-18_09h49.14.957,WholeReportMethod,2024.1.5,None,2024-11-18 09h49.21.717233 +0530,
41,0,41,0,250.64670679997653,,,,,,,,,250.6347614999395,250.64670679997653,251.13000899995677,251.1300480000209,251.146614999976,256.13482419983484,"['c', 'i', 'v', 'r']","[1.5066888998262584, 2.269492299994454, 2.95873159985058, 3.9747109999880195]","[0.11641870019957423, 0.11537559982389212, 0.11272850004024804, 0.12749350001104176]",873911,001,2024-11-18_09h49.14.957,WholeReportMethod,2024.1.5,None,2024-11-18 09h49.21.717233 +0530,
42,0,42,0,256.15106629999354,,,,,,,,,256.13623799989,256.15106629999354,256.6359975999221,256.636069299886,256.6523511998821,261.64195369998924,"['v', 'e', 'q', 'n']","[2.6925703999586403, 3.2056330998893827, 4.274154999991879, 4.80849269987084]","[0.12515440001152456, 0.18244440015405416, 0.18053979985415936, 0.08215490006841719]",873911,001,2024-11-18_09h49.14.957,WholeReportMethod,2024.1.5,None,2024-11-18 09h49.21.717233 +0530,
43,0,43,0,261.6588039000053,,,,,,,,,261.64587210002355,261.6588039000053,262.1421992999967,262.1422381999437,262.15943429991603,267.1307068997994,"['r', 'e', 'x']","[1.8759920001029968, 3.142093500122428, 3.6621271001640707]","[0.10541289998218417, 0.1306777000427246, 0.0989965999033302]",873911,001,2024-11-18_09h49.14.957,WholeReportMethod,2024.1.5,None,2024-11-18 09h49.21.717233 +0530,
44,0,44,0,267.1486143998336,,,,,,,,,267.1334356998559,267.1486143998336,267.6312204999849,267.6312585999258,267.64769689994864,272.636792199919,"['y', 'v', 'r']","[1.7098777999635786, 2.2816532000433654, 2.7417420998681337]","[0.11804559989832342, 0.11484529986046255, 0.10579850012436509]",873911,001,2024-11-18_09h49.14.957,WholeReportMethod,2024.1.5,None,2024-11-18 09h49.21.717233 +0530,
45,0,45,0,272.65475149988197,,,,,,,,,272.6393822999671,272.65475149988197,273.1388572999276,273.1388785999734,273.1533329000231,278.14291219995357,"['d', 'r', 'x', 'f']","[2.0763417000416666, 2.400082000065595, 3.1717402001377195, 4.036074100062251]","[0.11398350005038083, 0.12931070011109114, 0.11279090004973114, 0.11585270008072257]",873911,001,2024-11-18_09h49.14.957,WholeReportMethod,2024.1.5,None,2024-11-18 09h49.21.717233 +0530,
46,0,46,0,278.16068339999765,,,,,,,,,278.14567469991744,278.16068339999765,278.64343359996565,278.64346099994145,278.66007069987245,283.63326719985344,"['n', 'y', 'u', 'g']","[1.7355717001482844, 2.108451200183481, 2.8523892001248896, 3.3474309002049267]","[0.11351429997012019, 0.1200955999083817, 0.11204879987053573, 0.10079009993933141]",873911,001,2024-11-18_09h49.14.957,WholeReportMethod,2024.1.5,None,2024-11-18 09h49.21.717233 +0530,
47,0,47,0,283.6526740998961,,,,,,,,,283.6382674998604,283.6526740998961,284.1328732999973,284.1329125999473,284.15028589987196,289.13847559993155,['g'],[2.67579699982889],[0.11872100015170872],873911,001,2024-11-18_09h49.14.957,WholeReportMethod,2024.1.5,None,2024-11-18 09h49.21.717233 +0530,
48,0,48,0,289.1571181998588,,,,,,,,,289.1410158998333,289.1571181998588,289.63889159983955,289.63899699994363,289.6554957998451,294.6277017998509,"['c', 'y']","[0.23436130001209676, 0.7296605999581516]","[0.09547779988497496, 0.1100992001593113]",873911,001,2024-11-18_09h49.14.957,WholeReportMethod,2024.1.5,None,2024-11-18 09h49.21.717233 +0530,
49,0,49,0,294.647417599801,,,,,,,,,294.630793399876,294.647417599801,295.12822409998626,295.1282663999591,295.1449479998555,300.13350049988367,"['e', 'r', 'x', 'r']","[2.0478897001594305, 2.8057368001900613, 3.3663320001214743, 3.6785506000742316]","[0.11743390001356602, 0.10830419999547303, 0.09625489986501634, 0.10826299991458654]",873911,001,2024-11-18_09h49.14.957,WholeReportMethod,2024.1.5,None,2024-11-18 09h49.21.717233 +0530,
50,0,50,0,300.15068899979815,,,,,,,,,300.13566349982284,300.15068899979815,300.6344530999195,300.6344788998831,300.65076150000095,305.64015110000037,"['j', 'b']","[3.4880593998823315, 4.168055400019512]","[0.10919480002485216, 0.12468479992821813]",873911,001,2024-11-18_09h49.14.957,WholeReportMethod,2024.1.5,None,2024-11-18 09h49.21.717233 +0530,
51,0,51,0,305.65717579983175,,,,,,,,,305.6426158999093,305.65717579983175,306.14066649996676,306.1407064998057,306.15697609982453,311.1291190998163,"['c', 'j']","[0.07636189996264875, 1.5849415000993758]","[0.15474219992756844, 0.09568699984811246]",873911,001,2024-11-18_09h49.14.957,WholeReportMethod,2024.1.5,None,2024-11-18 09h49.21.717233 +0530,
52,0,52,0,311.14658509986475,,,,,,,,,311.1318874999415,311.14658509986475,311.6296588999685,311.6297162999399,311.6461794998031,316.63544179988094,"['d', 'a', 'g', 't']","[1.8362728001084179, 2.206667800201103, 2.5606239000335336, 3.059944499982521]","[0.09203019994311035, 0.1367489998228848, 0.10275009996257722, 0.11656110011972487]",873911,001,2024-11-18_09h49.14.957,WholeReportMethod,2024.1.5,None,2024-11-18 09h49.21.717233 +0530,
53,0,53,0,316.65123749990016,,,,,,,,,316.6379376000259,316.65123749990016,317.1359269998502,317.13595929997973,317.1521562000271,322.1411822999362,"['j', 'e', 'e', 's']","[1.5998648998793215, 2.070969499880448, 2.295410400023684, 2.687688099918887]","[0.11583240004256368, 0.1023725001141429, 0.10801990004256368, 0.09608180006034672]",873911,001,2024-11-18_09h49.14.957,WholeReportMethod,2024.1.5,None,2024-11-18 09h49.21.717233 +0530,
54,0,54,0,322.15849249996245,,,,,,,,,322.14388809981756,322.15849249996245,322.6426963999402,322.6427338998765,322.658516400028,327.6307428998407,"['o', 'n', 'f', 's']","[1.4088973000179976, 1.8870154998730868, 3.8262527999468148, 4.137545400066301]","[0.10827560001052916, 0.11685740016400814, 0.1294501000083983, 0.10573359997943044]",873911,001,2024-11-18_09h49.14.957,WholeReportMethod,2024.1.5,None,2024-11-18 09h49.21.717233 +0530,
55,0,55,0,327.6480627998244,,,,,,,,,327.63316039997153,327.6480627998244,328.13145560002886,328.131496099988,328.14814479998313,333.1370120998472,"['d', 'l', 'c', 'a']","[1.401746799936518, 1.7655734999570996, 2.5284444999415427, 2.737229800084606]","[0.1417503000702709, 0.11564460000954568, 0.11508240015245974, 0.13397639989852905]",873911,001,2024-11-18_09h49.14.957,WholeReportMethod,2024.1.5,None,2024-11-18 09h49.21.717233 +0530,
56,0,56,0,333.1547218998894,,,,,,,,,333.1397214999888,333.1547218998894,333.637747899862,333.63781540002674,333.6544372998178,338.6267540999688,"['q', 'n', 't', 'q']","[1.5483937000390142, 2.0028675000648946, 2.5693131000734866, 3.2836263000499457]","[0.16514259995892644, 0.11622709990479052, 0.11552429990842938, 0.14746949984692037]",873911,001,2024-11-18_09h49.14.957,WholeReportMethod,2024.1.5,None,2024-11-18 09h49.21.717233 +0530,
57,0,57,0,338.64410649985075,,,,,,,,,338.62937159999274,338.64410649985075,339.12705819983967,339.1271062998567,339.1431932998821,344.1327607999556,"['d', 't', 'z', 'y']","[1.4460422999691218, 1.9248201998416334, 2.5550100000109524, 3.018120399909094]","[0.11161809996701777, 0.11658970010466874, 0.14448449993506074, 0.1019989000633359]",873911,001,2024-11-18_09h49.14.957,WholeReportMethod,2024.1.5,None,2024-11-18 09h49.21.717233 +0530,
58,0,58,0,344.1488428998273,,,,,,,,,344.13577779987827,344.1488428998273,344.6329034999944,344.6329314999748,344.6493398998864,349.6384027998429,"['q', 'n', 'x', 't']","[1.6102324000094086, 2.1888309000059962, 2.8674429999664426, 3.5705556999891996]","[0.16829389985650778, 0.11544739990495145, 0.1359423000831157, 0.10270130005665123]",873911,001,2024-11-18_09h49.14.957,WholeReportMethod,2024.1.5,None,2024-11-18 09h49.21.717233 +0530,
59,0,59,0,349.6558905998245,,,,,,,,,349.6415454999078,349.6558905998245,350.1381908999756,350.1382108000107,350.1548488999251,355.1279638998676,"['s', 'i', 'o', 'r']","[1.5039552999660373, 2.132879799930379, 2.3582448998931795, 3.265466299839318]","[0.0985625998582691, 0.09542910009622574, 0.09253940009512007, 0.0983432000502944]",873911,001,2024-11-18_09h49.14.957,WholeReportMethod,2024.1.5,None,2024-11-18 09h49.21.717233 +0530,
60,0,60,0,355.14600709988736,,,,,,,,,355.1307258999441,355.14600709988736,355.62835829984397,355.6284060999751,355.6456889999099,360.63365549989976,"['y', 'd', 't', 'n']","[1.8080893999431282, 2.4415398000273854, 2.980782700004056, 3.737276199972257]","[0.12303810007870197, 0.10765609983354807, 0.1048862999305129, 0.12175869988277555]",873911,001,2024-11-18_09h49.14.957,WholeReportMethod,2024.1.5,None,2024-11-18 09h49.21.717233 +0530,
61,0,61,0,360.6512950998731,,,,,,,,,360.636523099849,360.6512950998731,361.1356716998853,361.1357094999403,361.15101009979844,366.1395695998799,"['l', 'g', 'w', 'n']","[2.2825681001413614, 2.8821068999823183, 3.3170223000925034, 3.798327299999073]","[0.11537929996848106, 0.10953869996592402, 0.1357022998854518, 0.10545339994132519]",873911,001,2024-11-18_09h49.14.957,WholeReportMethod,2024.1.5,None,2024-11-18 09h49.21.717233 +0530,
62,0,62,0,366.1571008998435,,,,,,,,,366.1422093999572,366.1571008998435,366.6414641998708,366.6414929998573,366.65726379980333,371.6293397999834,"['k', 'v', 'i', 'p']","[2.386671699816361, 2.8196738997939974, 3.182236799970269, 3.86728149978444]","[0.10913970018737018, 0.09221820021048188, 0.08508239989168942, 0.1147620000410825]",873911,001,2024-11-18_09h49.14.957,WholeReportMethod,2024.1.5,None,2024-11-18 09h49.21.717233 +0530,
63,0,63,0,371.6468477000017,,,,,,,,,371.6318610999733,371.6468477000017,372.12985119991936,372.12988819996826,372.14751419983804,377.13427179981954,"['c', 'g', 'k', 'd']","[2.5510718000587076, 2.99692240008153, 3.746915499912575, 4.354522499954328]","[0.1381887998431921, 0.09276629984378815, 0.11749700014479458, 0.11209150007925928]",873911,001,2024-11-18_09h49.14.957,WholeReportMethod,2024.1.5,None,2024-11-18 09h49.21.717233 +0530,
64,0,64,0,377.1512788999826,,,,,,,,,377.13578689983115,377.1512788999826,377.6358304999303,377.63588840002194,377.6525646999944,382.6412127998192,"['q', 'm', 'w']","[1.380382599774748, 2.241408000001684, 3.1098990999162197]","[0.20114540006034076, 0.11280419980175793, 0.13835989986546338]",873911,001,2024-11-18_09h49.14.957,WholeReportMethod,2024.1.5,None,2024-11-18 09h49.21.717233 +0530,
65,0,65,0,382.6590344000142,,,,,,,,,382.6438258998096,382.6590344000142,383.1421655998565,383.1421959998552,383.15863109985366,388.13067919993773,"['g', 'i', 'l', 'c']","[1.5832791000138968, 1.9920397999230772, 2.345473299967125, 2.825715299928561]","[0.09879399999044836, 0.11412749998271465, 0.10865429998375475, 0.10171160008758307]",873911,001,2024-11-18_09h49.14.957,WholeReportMethod,2024.1.5,None,2024-11-18 09h49.21.717233 +0530,
66,0,66,0,388.14921039994806,,,,,,,,,388.1334439998027,388.14921039994806,388.63180099986494,388.6318398998119,388.64821769995615,393.63693329994567,"['u', 's', 'v', 'p']","[1.3980532002169639, 1.8993491001892835, 2.209090800024569, 2.7771619001869112]","[0.10655179992318153, 0.1554397998843342, 0.10505190002731979, 0.1057867999188602]",873911,001,2024-11-18_09h49.14.957,WholeReportMethod,2024.1.5,None,2024-11-18 09h49.21.717233 +0530,
67,0,67,0,393.6547979998868,,,,,,,,,393.6399715000298,393.6547979998868,394.1374663999304,394.1375012998469,394.15387609996833,399.1431671997998,"['m', 'q', 'w']","[1.5512516999151558, 3.0791903999634087, 3.6165738999843597]","[0.11787550011649728, 0.18107000016607344, 0.15474179992452264]",873911,001,2024-11-18_09h49.14.957,WholeReportMethod,2024.1.5,None,2024-11-18 09h49.21.717233 +0530,
68,0,68,0,399.16015549981967,,,,,,,,,399.14642699994147,399.16015549981967,399.6269131000154,399.6269714999944,399.6435467998963,404.63194769993424,"['k', 'y', 'a', 'j']","[1.8251686000730842, 2.2358323000371456, 2.6764605999924242, 3.152843500021845]","[0.10787829989567399, 0.10224159993231297, 0.13564469991251826, 0.10248799994587898]",873911,001,2024-11-18_09h49.14.957,WholeReportMethod,2024.1.5,None,2024-11-18 09h49.21.717233 +0530,
69,0,69,0,404.6500607000198,,,,,,,,,404.6345516999718,404.6500607000198,405.13312439993024,405.13316039997153,405.14947579987347,410.13947950000875,"['y', 'a', 'f', 'u']","[1.8420947999693453, 2.2204847999382764, 4.015533299883828, 4.510072899982333]","[0.12070189998485148, 0.1552482999395579, 0.08829250000417233, 0.07348919985815883]",873911,001,2024-11-18_09h49.14.957,WholeReportMethod,2024.1.5,None,2024-11-18 09h49.21.717233 +0530,
70,0,70,0,410.1566687999293,,,,,,,,,410.14268559985794,410.1566687999293,410.6382513998542,410.63827280001715,410.6554625998251,415.62784529989585,"['l', 'u', 'x', 'x']","[1.5083425000775605, 1.8552695999387652, 2.667859199922532, 3.0838453001342714]","[0.08692539995536208, 0.10532040009275079, 0.10926160006783903, 0.11840809998102486]",873911,001,2024-11-18_09h49.14.957,WholeReportMethod,2024.1.5,None,2024-11-18 09h49.21.717233 +0530,
71,0,71,0,415.6464658000041,,,,,,,,,415.6306360999588,415.6464658000041,416.12829159991816,416.12832659995183,416.1455979999155,421.1338992998935,"['h', 'j', 't', 'i']","[1.474004000192508, 2.3175755001138896, 2.7045968000311404, 3.148111700080335]","[0.10313069983385503, 0.11220790003426373, 0.07038339995779097, 0.09589520003646612]",873911,001,2024-11-18_09h49.14.957,WholeReportMethod,2024.1.5,None,2024-11-18 09h49.21.717233 +0530,
72,0,72,0,421.15171539993025,,,,,,,,,421.13667789986357,421.15171539993025,421.63482879986987,421.6348863998428,421.650840499904,426.63987239985727,"['z', 'g']","[2.8499290999025106, 4.7811763000208884]","[0.14461599988862872, 0.11536329984664917]",873911,001,2024-11-18_09h49.14.957,WholeReportMethod,2024.1.5,None,2024-11-18 09h49.21.717233 +0530,
73,0,73,0,426.65711969998665,,,,,,,,,426.64259709999897,426.65711969998665,427.1404728998896,427.1405750999693,427.15666659991257,432.12919200002216,"['m', 'l']","[0.22738020005635917, 1.117601100122556]","[0.0926592000760138, 0.08912519994191825]",873911,001,2024-11-18_09h49.14.957,WholeReportMethod,2024.1.5,None,2024-11-18 09h49.21.717233 +0530,
74,0,74,0,432.1462460998446,,,,,,,,,432.1326001000125,432.1462460998446,432.6303552999161,432.630406799959,432.6464014998637,437.63521899981424,"['t', 'e', 'f', 'c']","[1.8443870998453349, 2.2459529999177903, 2.6016384998802096, 3.265679699834436]","[0.11123640020377934, 0.12248670007102191, 0.11521980003453791, 0.0961513000074774]",873911,001,2024-11-18_09h49.14.957,WholeReportMethod,2024.1.5,None,2024-11-18 09h49.21.717233 +0530,
75,0,75,0,437.65315469983034,,,,,,,,,437.6380922999233,437.65315469983034,438.1362275998108,438.13629249995574,438.1523996000178,443.1413335998077,"['f', 'n', 'p', 'a']","[1.393089900026098, 1.9060961999930441, 2.519776999950409, 2.911954800132662]","[0.08847449999302626, 0.09550540009513497, 0.09828849998302758, 0.10325889987871051]",873911,001,2024-11-18_09h49.14.957,WholeReportMethod,2024.1.5,None,2024-11-18 09h49.21.717233 +0530,
76,0,76,0,443.1597276998218,,,,,,,,,443.1446910998784,443.1597276998218,443.6420067998115,443.6420491999015,443.65842699981295,448.63074589986354,"['m', 'j', 'f']","[2.521718099946156, 3.9561908000614494, 4.472614800091833]","[0.11230959999375045, 0.12900389987044036, 0.09073659987188876]",873911,001,2024-11-18_09h49.14.957,WholeReportMethod,2024.1.5,None,2024-11-18 09h49.21.717233 +0530,
77,0,77,0,448.64860940002836,,,,,,,,,448.63352689985186,448.64860940002836,449.1316721998155,449.1317102999892,449.1484139999375,454.13661099993624,['v'],[0.16775829996913671],[0.11587070021778345],873911,001,2024-11-18_09h49.14.957,WholeReportMethod,2024.1.5,None,2024-11-18 09h49.21.717233 +0530,
78,0,78,0,454.1547536000144,,,,,,,,,454.13943209988065,454.1547536000144,454.63770539988764,454.6377607998438,454.6538803000003,459.6428098999895,"['m', 'q', 'u', 'k']","[1.4390947001520544, 2.0532965001184493, 2.683657400077209, 3.353028899990022]","[0.10116779990494251, 0.11232079984620214, 0.08193830004893243, 0.0938668001908809]",873911,001,2024-11-18_09h49.14.957,WholeReportMethod,2024.1.5,None,2024-11-18 09h49.21.717233 +0530,
79,0,79,0,459.65979749988765,,,,,,,,,459.64521240000613,459.65979749988765,460.14317689999007,460.14322560001165,460.16108649992384,465.1322937000077,"['z', 'y', 'r', 'g']","[2.0272302001249045, 2.553317000158131, 4.022769000148401, 4.421459200093523]","[0.16864540008828044, 0.09600030002184212, 0.08226419985294342, 0.08568060002289712]",873911,001,2024-11-18_09h49.14.957,WholeReportMethod,2024.1.5,None,2024-11-18 09h49.21.717233 +0530,
80,0,80,0,465.15102200000547,,,,,,,,,465.1351544999052,465.15102200000547,465.6331982999109,465.63322939979844,465.6495360999834,470.6383014000021,"['q', 'm', 'e', 'y']","[1.7532847998663783, 2.1643605998251587, 2.902355699799955, 3.538232599850744]","[0.1322002001106739, 0.11619990016333759, 0.09154639998450875, 0.10959120001643896]",873911,001,2024-11-18_09h49.14.957,WholeReportMethod,2024.1.5,None,2024-11-18 09h49.21.717233 +0530,
81,0,81,0,470.65484029985964,,,,,,,,,470.64172840001993,470.65484029985964,471.13898349995725,471.1390296998434,471.15565939992666,476.1279320998583,"['i', 'x', 'o']","[2.2148535999003798, 4.007669399958104, 4.3031087999697775]","[0.10468370001763105, 0.14109340007416904, 0.10550609999336302]",873911,001,2024-11-18_09h49.14.957,WholeReportMethod,2024.1.5,None,2024-11-18 09h49.21.717233 +0530,
82,0,82,0,476.1458338999655,,,,,,,,,476.1308716000058,476.1458338999655,476.62878829985857,476.62881919997744,476.6448119999841,481.6343449000269,"['g', 'a', 'p']","[2.229524499969557, 2.6240592999383807, 3.283264300087467]","[0.11231630016118288, 0.12146340007893741, 0.1055139999371022]",873911,001,2024-11-18_09h49.14.957,WholeReportMethod,2024.1.5,None,2024-11-18 09h49.21.717233 +0530,
83,0,83,0,481.6521542998962,,,,,,,,,481.63704179995693,481.6521542998962,482.135788399959,482.13583399984054,482.15089339995757,487.1402229999658,"['n', 'i', 'c', 'o']","[1.2706745001487434, 1.6240761999506503, 2.1285470000002533, 2.6054688000585884]","[0.10899749980308115, 0.10450870008207858, 0.10405259998515248, 0.1326262999791652]",873911,001,2024-11-18_09h49.14.957,WholeReportMethod,2024.1.5,None,2024-11-18 09h49.21.717233 +0530,
84,0,84,0,487.1591287998017,,,,,,,,,487.1431811999064,487.1591287998017,487.64156449981965,487.641599399969,487.6574058998376,492.62949520000257,"['x', 'g', 'i']","[1.5882782000117004, 2.2635711000766605, 3.083757500164211]","[0.1222399000544101, 0.11176689993590117, 0.10906960000284016]",873911,001,2024-11-18_09h49.14.957,WholeReportMethod,2024.1.5,None,2024-11-18 09h49.21.717233 +0530,
85,0,85,0,492.6503498998936,,,,,,,,,492.63403579988517,492.6503498998936,493.13026459980756,493.13033610000275,493.14644559985027,498.1350988999475,"['k', 'v', 'n', 'g']","[2.059974299976602, 2.795591800007969, 3.3847066999878734, 4.1421106001362205]","[0.10486120008863509, 0.07560959993861616, 0.10917220008559525, 0.0899782998021692]",873911,001,2024-11-18_09h49.14.957,WholeReportMethod,2024.1.5,None,2024-11-18 09h49.21.717233 +0530,
86,0,86,0,498.1524057998322,,,,,,,,,498.1378458000254,498.1524057998322,498.63720369990915,498.6372428999748,498.65196009981446,503.6412847000174,"['v', 't', 'v', 'o']","[1.1581729999743402, 2.191748100100085, 2.8368653000798076, 3.2400875999592245]","[0.111106300028041, 0.12234189989976585, 0.09273319994099438, 0.09464370016939938]",873911,001,2024-11-18_09h49.14.957,WholeReportMethod,2024.1.5,None,2024-11-18 09h49.21.717233 +0530,
87,0,87,0,503.65893159992993,,,,,,,,,503.6444085999392,503.65893159992993,504.1414350999985,504.1414697000291,504.15787819982506,509.13046190002933,"['q', 'i', 't', 'd']","[1.428196899825707, 1.9527222998440266, 2.6438225000165403, 3.1004226999357343]","[0.14731350005604327, 0.1251577001530677, 0.10753279994241893, 0.12771030003204942]",873911,001,2024-11-18_09h49.14.957,WholeReportMethod,2024.1.5,None,2024-11-18 09h49.21.717233 +0530,
88,0,88,0,509.1481211998034,,,,,,,,,509.13308499986306,509.1481211998034,509.63242009980604,509.6324640000239,509.6477108998224,514.6365236998536,"['p', 'g', 'n', 'z']","[1.6354737000074238, 2.1286455001682043, 2.713018300011754, 3.573807100066915]","[0.12192300008609891, 0.12073199986480176, 0.13087550015188754, 0.12164889997802675]",873911,001,2024-11-18_09h49.14.957,WholeReportMethod,2024.1.5,None,2024-11-18 09h49.21.717233 +0530,
89,0,89,0,514.6541623999365,,,,,,,,,514.6394571999554,514.6541623999365,515.1373446998186,515.1375411998015,515.1539008999243,520.126446899958,"['k', 'd', 'q', 's']","[2.093242699978873, 2.520298299845308, 3.161168299848214, 3.781015499960631]","[0.11884599993936718, 0.13816360011696815, 0.13310740003362298, 0.12011260003782809]",873911,001,2024-11-18_09h49.14.957,WholeReportMethod,2024.1.5,None,2024-11-18 09h49.21.717233 +0530,
90,0,90,0,520.1448815998156,,,,,,,,,520.1294605999719,520.1448815998156,520.6273190998472,520.627358000027,520.6441411999986,525.6325523999985,"['s', 'g', 'y', 'u']","[1.8231349000707269, 2.445803500013426, 3.200197300175205, 3.646176300011575]","[0.15479420009069145, 0.10611950000748038, 0.10597139992751181, 0.11828269995748997]",873911,001,2024-11-18_09h49.14.957,WholeReportMethod,2024.1.5,None,2024-11-18 09h49.21.717233 +0530,
91,0,91,0,525.6492165999953,,,,,,,,,525.6353378000204,525.6492165999953,526.1330911000259,526.1331263999455,526.1495628999546,531.1374046998098,"['s', 'a', 'g', 'i']","[1.429660800145939, 1.7707901999820024, 2.4268662999384105, 2.862865600036457]","[0.09757569991052151, 0.13483950006775558, 0.09211900015361607, 0.11474850005470216]",873911,001,2024-11-18_09h49.14.957,WholeReportMethod,2024.1.5,None,2024-11-18 09h49.21.717233 +0530,
92,0,92,0,531.1540627998766,,,,,,,,,531.1392880999483,531.1540627998766,531.6389913000166,531.639038000023,531.6554876000155,536.6277871998027,"['d', 'y', 'h', 'c']","[1.7008142999839038, 2.6126667000353336, 3.2160237999632955, 3.9215563000179827]","[0.09868700010702014, 0.11836580000817776, 0.099663499975577, 0.10950089991092682]",873911,001,2024-11-18_09h49.14.957,WholeReportMethod,2024.1.5,None,2024-11-18 09h49.21.717233 +0530,
93,0,93,0,536.6453077998012,,,,,,,,,536.6305692999158,536.6453077998012,537.1286094998941,537.1286476999521,537.1449207998812,542.1338197998703,"['a', 'd', 'k', 'y']","[1.8048155000433326, 2.16137530002743, 3.2202216999139637, 3.6594775000121444]","[0.15522799990139902, 0.09200619999319315, 0.09600219991989434, 0.10586969996802509]",873911,001,2024-11-18_09h49.14.957,WholeReportMethod,2024.1.5,None,2024-11-18 09h49.21.717233 +0530,
94,0,94,0,542.1520867999643,,,,,,,,,542.1365352999419,542.1520867999643,542.6346658000257,542.6347033998463,542.65117369988,547.6401878998149,"['t', 'a', 'm', 'z']","[1.7618656000122428, 2.0810739998705685, 2.5301073000300676, 3.1028360999189317]","[0.09252840001136065, 0.16378340008668602, 0.10061670001596212, 0.12603539996780455]",873911,001,2024-11-18_09h49.14.957,WholeReportMethod,2024.1.5,None,2024-11-18 09h49.21.717233 +0530,
95,0,95,0,547.6576894000173,,,,,,,,,547.643042099895,547.6576894000173,548.1401279999409,548.1401537999045,548.155961799901,553.1292758998461,"['d', 'l', 'f', 's']","[2.059633299941197, 2.732215200085193, 3.205066000111401, 3.557069499976933]","[0.09812680003233254, 0.10214989981614053, 0.09962120000272989, 0.08845799998380244]",873911,001,2024-11-18_09h49.14.957,WholeReportMethod,2024.1.5,None,2024-11-18 09h49.21.717233 +0530,
96,0,96,0,553.1472783999052,,,,,,,,,553.1321381998714,553.1472783999052,553.6301938998513,553.6302318999078,553.6464960998856,558.6356905000284,"['x', 'r', 'x', 'f']","[1.777870399877429, 2.4201505999080837, 2.88178849988617, 4.8390297999139875]","[0.11111570009961724, 0.11726210010237992, 0.14645260013639927, 0.09384929994121194]",873911,001,2024-11-18_09h49.14.957,WholeReportMethod,2024.1.5,None,2024-11-18 09h49.21.717233 +0530,
97,0,97,0,558.6530561998952,,,,,,,,,558.6386747998185,558.6530561998952,559.1364976998884,559.1365205999464,559.1523939999752,564.1415169998072,"['c', 'k']","[2.3848180000204593, 3.083612499991432]","[0.09573060018010437, 0.10998260020278394]",873911,001,2024-11-18_09h49.14.957,WholeReportMethod,2024.1.5,None,2024-11-18 09h49.21.717233 +0530,
98,0,98,0,564.1590605999809,,,,,,,,,564.1443816998508,564.1590605999809,564.6419524999801,564.6419989999849,564.6583467000164,569.6306545999832,"['k', 'd', 't', 'o']","[1.9648297999519855, 2.4408035001251847, 2.868734800023958, 3.4341476000845432]","[0.11140609998255968, 0.16845809994265437, 0.09695559996180236, 0.1103783999569714]",873911,001,2024-11-18_09h49.14.957,WholeReportMethod,2024.1.5,None,2024-11-18 09h49.21.717233 +0530,
99,0,99,0,569.6488993000239,,,,,,,,,569.6336590999272,569.6488993000239,570.1311835998204,570.1313597999979,570.14754549996,575.1376787999179,"['e', 'u', 'u', 'm']","[1.3804494999349117, 2.305608000140637, 2.6269288000185043, 3.1601726999506354]","[0.12879220000468194, 0.12819199985824525, 0.10898709995672107, 0.11542040016502142]",873911,001,2024-11-18_09h49.14.957,WholeReportMethod,2024.1.5,None,2024-11-18 09h49.21.717233 +0530,
