trials.thisRepN,trials.thisTrialN,trials.thisN,trials.thisIndex,thisRow.t,notes,introduction.started,text.started,key_resp_2.started,introduction.stopped,key_resp_2.keys,key_resp_2.rt,key_resp_2.duration,trial.started,letter_grid.started,row_cue.started,letter_grid.stopped,row_cue.stopped,trial.stopped,response_routine.started,response_routine.stopped,response.keys,response.rt,response.duration,Cued Row,Correct Row,Participant Response,Is Correct,participant,session,date,expName,psychopyVersion,frameRate,expStart,
,,,,,,0.003302699886262417,0.016834599897265434,0.016834599897265434,15.702457900159061,space,15.673352600075305,None,,,,,,,,,,,,,,,,063361,001,2024-11-20_13h51.02.591,PartialReportMethod,2024.1.5,None,2024-11-20 13h51.09.480090 +0530,
0,0,0,0,15.72371320007369,,,,,,,,,15.705669600050896,15.72371320007369,16.20213560014963,16.23524159984663,16.70207370026037,16.685528399888426,16.685556299984455,21.69248820003122,"['f', 'r']","[1.4494298002682626, 1.601532000117004]","[0.08010519994422793, 0.07913330011069775]",1,LSFM,"['f', 'r']",False,063361,001,2024-11-20_13h51.02.591,PartialReportMethod,2024.1.5,None,2024-11-20 13h51.09.480090 +0530,
1,0,1,0,21.784486500080675,,,,,,,,,21.69650570023805,21.784486500080675,22.2087183999829,22.292359500192106,22.71124739991501,22.693604100029916,22.6936309998855,27.697486999910325,['y'],[0.8624971001408994],[0.0787508999928832],1,PYQX,['y'],False,063361,001,2024-11-20_13h51.02.591,PartialReportMethod,2024.1.5,None,2024-11-20 13h51.09.480090 +0530,
2,0,2,0,27.713804599829018,,,,,,,,,27.698484799824655,27.713804599829018,28.21507180016488,28.21507180016488,28.715878900140524,28.70017490023747,28.700204700231552,33.70432720007375,"['k', 'z']","[2.2977546001784503, 2.701315099839121]","[0.08602020004764199, 0.07293250039219856]",2,BZWL,"['k', 'z']",False,063361,001,2024-11-20_13h51.02.591,PartialReportMethod,2024.1.5,None,2024-11-20 13h51.09.480090 +0530,
3,0,3,0,33.7205249001272,,,,,,,,,33.70562480017543,33.7205249001272,34.20488720014691,34.22185940016061,34.70591880008578,34.69008109997958,34.690112200099975,39.69600880006328,"['j', 'c']","[0.9145848997868598, 1.2826348999515176]","[0.08536440040916204, 0.07256380002945662]",1,JCBV,"['j', 'c']",False,063361,001,2024-11-20_13h51.02.591,PartialReportMethod,2024.1.5,None,2024-11-20 13h51.09.480090 +0530,
4,0,4,0,39.71208770014346,,,,,,,,,39.69753629993647,39.71208770014346,40.211416699923575,40.211416699923575,40.712570699863136,40.69691069982946,40.696939799934626,45.70252260006964,"['u', 'z']","[2.156766700092703, 2.7811845000833273]","[0.08035429986193776, 0.08562490018084645]",2,ZULT,"['u', 'z']",False,063361,001,2024-11-20_13h51.02.591,PartialReportMethod,2024.1.5,None,2024-11-20 13h51.09.480090 +0530,
5,0,5,0,45.717390900012106,,,,,,,,,45.7037374000065,45.717390900012106,46.218201000243425,46.218201000243425,46.718213099986315,46.70254880003631,46.702568099834025,51.707025200128555,"['i', 'z']","[0.8485898999497294, 1.175027099903673]","[0.08645839989185333, 0.09855710016563535]",2,IZDM,"['i', 'z']",False,063361,001,2024-11-20_13h51.02.591,PartialReportMethod,2024.1.5,None,2024-11-20 13h51.09.480090 +0530,
6,0,6,0,51.724221900105476,,,,,,,,,51.70968460012227,51.724221900105476,52.20820790017024,52.22510639997199,52.70823560003191,52.693224099930376,52.693259300198406,57.69830679986626,['e'],[0.7615892998874187],[0.10436340002343059],0,CPUD,['e'],False,063361,001,2024-11-20_13h51.02.591,PartialReportMethod,2024.1.5,None,2024-11-20 13h51.09.480090 +0530,
7,0,7,0,57.714672800153494,,,,,,,,,57.69948309985921,57.714672800153494,58.21482740016654,58.21482740016654,58.71546069998294,58.69976080022752,58.69978090003133,63.704252699855715,"['x', 'y']","[0.6069926000200212, 1.0579491001553833]","[0.07932869996875525, 0.07881859969347715]",2,XYDC,"['x', 'y']",False,063361,001,2024-11-20_13h51.02.591,PartialReportMethod,2024.1.5,None,2024-11-20 13h51.09.480090 +0530,
8,0,8,0,63.72116720024496,,,,,,,,,63.70545160025358,63.72116720024496,64.20463870000094,64.22156930016354,64.70489009981975,64.68953710002825,64.68956820014864,69.69475790020078,"['c', 'a']","[0.8442703997716308, 0.9606842999346554]","[0.07218969985842705, 0.07236910006031394]",1,CABB,"['c', 'a']",False,063361,001,2024-11-20_13h51.02.591,PartialReportMethod,2024.1.5,None,2024-11-20 13h51.09.480090 +0530,
9,0,9,0,69.71101190010086,,,,,,,,,69.6962036001496,69.71101190010086,70.21244020015001,70.21244020015001,70.71187609992921,70.6964735002257,70.69648770010099,75.70162500021979,['k'],[1.4781311000697315],[0.08234960027039051],0,KGKT,['k'],False,063361,001,2024-11-20_13h51.02.591,PartialReportMethod,2024.1.5,None,2024-11-20 13h51.09.480090 +0530,
10,0,10,0,75.71730310004205,,,,,,,,,75.70294649992138,75.71730310004205,76.21758620021865,76.21758620021865,76.71865240018815,76.70254199998453,76.70256729982793,81.70766190020368,"['v', 'y']","[1.6961793997325003, 2.1329597998410463]","[0.08026539999991655, 0.08096690010279417]",0,VYOD,"['v', 'y']",False,063361,001,2024-11-20_13h51.02.591,PartialReportMethod,2024.1.5,None,2024-11-20 13h51.09.480090 +0530,
11,0,11,0,81.72409659996629,,,,,,,,,81.70930249989033,81.72409659996629,82.20820639980957,82.22453280026093,82.70824640011415,82.69271109998226,82.69274119986221,87.69795660022646,['y'],[0.9283289001323283],[0.06971949990838766],0,SLXM,['y'],False,063361,001,2024-11-20_13h51.02.591,PartialReportMethod,2024.1.5,None,2024-11-20 13h51.09.480090 +0530,
12,0,12,0,87.71380170015618,,,,,,,,,87.69946510018781,87.71380170015618,88.21534699993208,88.21534699993208,,88.71471840003505,88.71474110009149,93.70413900027052,"['y', 'z']","[0.846427499782294, 1.2266901000402868]","[0.07291819993406534, 0.07875699969008565]",0,VHON,"['y', 'z']",False,063361,001,2024-11-20_13h51.02.591,PartialReportMethod,2024.1.5,None,2024-11-20 13h51.09.480090 +0530,
13,0,13,0,93.72055929992348,,,,,,,,,93.70584690012038,93.72055929992348,94.20395899983123,94.22132690018043,94.70506069995463,94.68851150013506,94.68853250006214,99.6947230999358,"['u', 'u']","[0.8516935999505222, 1.1089118998497725]","[0.07233829982578754, 0.07853429997339845]",2,UUMO,"['u', 'u']",False,063361,001,2024-11-20_13h51.02.591,PartialReportMethod,2024.1.5,None,2024-11-20 13h51.09.480090 +0530,
14,0,14,0,99.71123130014166,,,,,,,,,99.69630399998277,99.71123130014166,100.21106649981812,100.21106649981812,100.71110100019723,100.6955527998507,100.69557180022821,105.70038510020822,['u'],[1.0897518997080624],[0.07314560003578663],0,HHOP,['u'],False,063361,001,2024-11-20_13h51.02.591,PartialReportMethod,2024.1.5,None,2024-11-20 13h51.09.480090 +0530,
15,0,15,0,105.7179454001598,,,,,,,,,105.70126739982516,105.7179454001598,106.21791390003636,106.21791390003636,106.71739850006998,106.70149900019169,106.701516199857,111.70683320006356,['j'],[1.235775699838996],[0.07891289982944727],0,BGUY,['j'],False,063361,001,2024-11-20_13h51.02.591,PartialReportMethod,2024.1.5,None,2024-11-20 13h51.09.480090 +0530,
16,0,16,0,111.72293209983036,,,,,,,,,111.70830410020426,111.72293209983036,112.20706749986857,112.22417700011283,112.7079139999114,112.69213510025293,112.69215210014954,117.69864360010251,"['a', 'c']","[0.8889903002418578, 1.1223356002010405]","[0.07904209988191724, 0.08173629967495799]",0,ACDQ,"['a', 'c']",False,063361,001,2024-11-20_13h51.02.591,PartialReportMethod,2024.1.5,None,2024-11-20 13h51.09.480090 +0530,
17,0,17,0,117.71300309989601,,,,,,,,,117.69991669990122,117.71300309989601,118.21453250013292,118.21453250013292,118.7138209999539,118.69836700009182,118.69838109984994,123.70392390014604,"['z', 't']","[0.7451293999329209, 1.1105637000873685]","[0.09835190000012517, 0.08228109963238239]",0,ZTFK,"['z', 't']",False,063361,001,2024-11-20_13h51.02.591,PartialReportMethod,2024.1.5,None,2024-11-20 13h51.09.480090 +0530,
18,0,18,0,123.71983759989962,,,,,,,,,123.7068150001578,123.71983759989962,124.20411660009995,124.22092280024663,124.70525539992377,124.68909749994054,124.68916189996526,129.69400409981608,['f'],[1.0016087000258267],[0.0776495998725295],2,FDGZ,['f'],False,063361,001,2024-11-20_13h51.02.591,PartialReportMethod,2024.1.5,None,2024-11-20 13h51.09.480090 +0530,
19,0,19,0,129.71025939984247,,,,,,,,,129.69561380008236,129.71025939984247,130.21025100024417,130.21025100024417,130.71121650002897,130.69622780010104,130.6962733999826,135.7014411999844,['a'],[1.0497832000255585],[0.09337319992482662],0,ABUB,['a'],False,063361,001,2024-11-20_13h51.02.591,PartialReportMethod,2024.1.5,None,2024-11-20 13h51.09.480090 +0530,
20,0,20,0,135.71704260027036,,,,,,,,,135.7030107001774,135.71704260027036,136.2186039001681,136.2186039001681,,136.71804329985753,136.71805879985914,141.70826560026035,"['h', 'a']","[1.4085333999246359, 1.8228207998909056]","[0.08510399982333183, 0.06785039976239204]",2,IMWP,"['h', 'a']",False,063361,001,2024-11-20_13h51.02.591,PartialReportMethod,2024.1.5,None,2024-11-20 13h51.09.480090 +0530,
21,0,21,0,141.72373670013621,,,,,,,,,141.70966409984976,141.72373670013621,142.2074548001401,142.22478980012238,142.7081415001303,142.69189759995788,142.69192830007523,147.69884510012344,"['a', 'c']","[0.8562174998223782, 1.2611968000419438]","[0.06302340002730489, 0.06252659996971488]",0,AGGV,"['a', 'c']",False,063361,001,2024-11-20_13h51.02.591,PartialReportMethod,2024.1.5,None,2024-11-20 13h51.09.480090 +0530,
22,0,22,0,147.71494220010936,,,,,,,,,147.70168920001015,147.71494220010936,148.21590249985456,148.21590249985456,148.714524500072,148.7004581000656,148.70051460014656,153.7031673998572,"['g', 'w']","[1.372878700029105, 1.7681630998849869]","[0.08819499984383583, 0.06830559996888041]",1,GWDK,"['g', 'w']",False,063361,001,2024-11-20_13h51.02.591,PartialReportMethod,2024.1.5,None,2024-11-20 13h51.09.480090 +0530,
23,0,23,0,153.71985420025885,,,,,,,,,153.70418470026925,153.71985420025885,154.20451530022547,154.220705000218,154.70462610013783,154.68905889987946,154.68910840013996,159.69331309990957,"['o', 'q']","[1.104723600205034, 3.4210069002583623]","[0.08609170001000166, 0.10247879987582564]",0,OGRJ,"['o', 'q']",False,063361,001,2024-11-20_13h51.02.591,PartialReportMethod,2024.1.5,None,2024-11-20 13h51.09.480090 +0530,
24,0,24,0,159.70928880013525,,,,,,,,,159.69480240019038,159.70928880013525,160.21076360018924,160.21076360018924,160.71108180005103,160.696275500115,160.69631829997525,165.70064370008186,"['c', 'v']","[1.4118497003801167, 1.644497100263834]","[0.07136789988726377, 0.06980649987235665]",1,CIHR,"['c', 'v']",False,063361,001,2024-11-20_13h51.02.591,PartialReportMethod,2024.1.5,None,2024-11-20 13h51.09.480090 +0530,
25,0,25,0,165.71616950025782,,,,,,,,,165.701552500017,165.71616950025782,166.21688809990883,166.21688809990883,166.71750550018623,166.7024726998061,166.70250059990212,171.7062947000377,"['d', 'r']","[0.9141832999885082, 1.1194369001314044]","[0.08303550025448203, 0.07682849979028106]",1,DRET,"['d', 'r']",False,063361,001,2024-11-20_13h51.02.591,PartialReportMethod,2024.1.5,None,2024-11-20 13h51.09.480090 +0530,
26,0,26,0,171.72272600000724,,,,,,,,,171.7080266000703,171.72272600000724,172.20709299994633,172.2240690002218,172.70884389989078,172.69200089992955,172.6920308000408,177.69646350014955,"['e', 'o']","[1.2070931000635028, 1.88079380011186]","[0.08076230017468333, 0.07680719997733831]",1,EOML,"['e', 'o']",False,063361,001,2024-11-20_13h51.02.591,PartialReportMethod,2024.1.5,None,2024-11-20 13h51.09.480090 +0530,
27,0,27,0,177.7125849002041,,,,,,,,,177.6976272999309,177.7125849002041,178.21301259985194,178.21301259985194,178.71433070022613,178.69877779996023,178.69880509981886,183.70289999991655,['t'],[1.4068729002028704],[0.07963709998875856],2,SLCW,['t'],False,063361,001,2024-11-20_13h51.02.591,PartialReportMethod,2024.1.5,None,2024-11-20 13h51.09.480090 +0530,
28,0,28,0,183.71954660024494,,,,,,,,,183.70445080008358,183.71954660024494,184.20279789995402,184.22060560015962,184.70361009985209,184.6882799998857,184.68829780025408,189.69370190007612,"['p', 'u']","[1.5676558995619416, 1.9651891998946667]","[0.07177380006760359, 0.0720338998362422]",2,PURG,"['p', 'u']",False,063361,001,2024-11-20_13h51.02.591,PartialReportMethod,2024.1.5,None,2024-11-20 13h51.09.480090 +0530,
29,0,29,0,189.70896090008318,,,,,,,,,189.69466989999637,189.70896090008318,190.20965570025146,190.20965570025146,190.71196920005605,190.69548729993403,190.69551300024614,195.7001630999148,"['o', 'n']","[0.8763689999468625, 2.0009864000603557]","[0.07208110019564629, 0.07169390004128218]",2,OTNB,"['o', 'n']",False,063361,001,2024-11-20_13h51.02.591,PartialReportMethod,2024.1.5,None,2024-11-20 13h51.09.480090 +0530,
30,0,30,0,195.71709909988567,,,,,,,,,195.70182739989832,195.71709909988567,196.21622850000858,196.21622850000858,196.71737729990855,196.70111870020628,196.7011498999782,201.7059750999324,"['b', 'd']","[1.9992523998953402, 2.6632938999682665]","[0.053337800316512585, 0.08317960007116199]",2,BDKY,"['b', 'd']",False,063361,001,2024-11-20_13h51.02.591,PartialReportMethod,2024.1.5,None,2024-11-20 13h51.09.480090 +0530,
31,0,31,0,201.72300049988553,,,,,,,,,201.70697400020435,201.72300049988553,202.20636320021003,202.22296759998426,202.70713069988415,202.69072340009734,202.69074939982966,207.6970067000948,['l'],[1.4371870001778007],[0.04974360018968582],0,NHYQ,['l'],False,063361,001,2024-11-20_13h51.02.591,PartialReportMethod,2024.1.5,None,2024-11-20 13h51.09.480090 +0530,
32,0,32,0,207.71280100010335,,,,,,,,,207.7002282999456,207.71280100010335,208.21410280000418,208.21410280000418,208.71351579995826,208.69858109997585,208.6986020002514,213.7032873001881,"['o', 'p']","[1.766153700184077, 2.0332038002088666]","[0.0520711001008749, 0.060428000055253506]",0,OPMW,"['o', 'p']",False,063361,001,2024-11-20_13h51.02.591,PartialReportMethod,2024.1.5,None,2024-11-20 13h51.09.480090 +0530,
33,0,33,0,213.71949120005593,,,,,,,,,213.70426730019972,213.71949120005593,214.20321199996397,214.2200994999148,214.70401349989697,214.68848949996755,214.68850640021265,219.6936961999163,"['l', 'j']","[1.1341125001199543, 1.4504130999557674]","[0.052583999931812286, 0.04183770017698407]",2,LOSC,"['l', 'j']",False,063361,001,2024-11-20_13h51.02.591,PartialReportMethod,2024.1.5,None,2024-11-20 13h51.09.480090 +0530,
34,0,34,0,219.70931850001216,,,,,,,,,219.69480870012194,219.70931850001216,220.2099060001783,220.2099060001783,220.71081760013476,220.69471239997074,220.69472930021584,225.7004750999622,['e'],[1.1756800999864936],[0.11145230010151863],2,MEVT,['e'],False,063361,001,2024-11-20_13h51.02.591,PartialReportMethod,2024.1.5,None,2024-11-20 13h51.09.480090 +0530,
35,0,35,0,225.71603399980813,,,,,,,,,225.7020387002267,225.71603399980813,226.2163996999152,226.2163996999152,226.71697140019387,226.70151269994676,226.70152889983729,231.70651119994,"['n', 'z']","[1.4348459001630545, 1.7964302999898791]","[0.08331279968842864, 0.08159210020676255]",2,AZXG,"['n', 'z']",False,063361,001,2024-11-20_13h51.02.591,PartialReportMethod,2024.1.5,None,2024-11-20 13h51.09.480090 +0530,
36,0,36,0,231.72291349992156,,,,,,,,,231.70843649981543,231.72291349992156,232.20707770017907,232.22299369983375,232.70660110004246,232.6909365998581,232.6909528002143,237.6964393001981,"['t', 'c']","[0.5955651002004743, 0.9155172002501786]","[0.07868950022384524, 0.07598019996657968]",2,TCAB,"['t', 'c']",False,063361,001,2024-11-20_13h51.02.591,PartialReportMethod,2024.1.5,None,2024-11-20 13h51.09.480090 +0530,
37,0,37,0,237.71171559998766,,,,,,,,,237.69733039988205,237.71171559998766,238.21339089982212,238.21339089982212,238.71356600010768,238.69779019989073,238.69780729990453,243.70254680002108,"['e', 's']","[0.6743604000657797, 0.8780441000126302]","[0.10840390017256141, 0.08763290010392666]",2,ESBS,"['e', 's']",False,063361,001,2024-11-20_13h51.02.591,PartialReportMethod,2024.1.5,None,2024-11-20 13h51.09.480090 +0530,
38,0,38,0,243.719241600018,,,,,,,,,243.70346500026062,243.719241600018,244.20312200021,244.22049990016967,244.70364220021293,244.68782609980553,244.68784289993346,249.6933440999128,['b'],[1.0779491998255253],[0.0780450003221631],0,ZRIQ,['b'],False,063361,001,2024-11-20_13h51.02.591,PartialReportMethod,2024.1.5,None,2024-11-20 13h51.09.480090 +0530,
39,0,39,0,249.7089845002629,,,,,,,,,249.69450400024652,249.7089845002629,250.20971579989418,250.20971579989418,250.7104688999243,250.69420000026003,250.69422060018405,255.69951019994915,"['l', 't']","[0.9617004999890924, 1.4191974997520447]","[0.07842009980231524, 0.08409360004588962]",0,LWEM,"['l', 't']",False,063361,001,2024-11-20_13h51.02.591,PartialReportMethod,2024.1.5,None,2024-11-20 13h51.09.480090 +0530,
40,0,40,0,255.71586989983916,,,,,,,,,255.70106980018318,255.71586989983916,256.2164515000768,256.2164515000768,256.7168748001568,256.70154449995607,256.7015641001053,261.70678659994155,['g'],[1.9306697002612054],[0.08428269997239113],0,GGYU,['g'],False,063361,001,2024-11-20_13h51.02.591,PartialReportMethod,2024.1.5,None,2024-11-20 13h51.09.480090 +0530,
41,0,41,0,261.72232760023326,,,,,,,,,261.7084797001444,261.72232760023326,262.2066766000353,262.2233068002388,262.706922700163,262.6907891998999,262.69080490013584,267.69638870004565,"['p', 'n']","[1.309991099871695, 1.7296169996261597]","[0.09136079996824265, 0.08078680001199245]",0,NPWX,"['p', 'n']",False,063361,001,2024-11-20_13h51.02.591,PartialReportMethod,2024.1.5,None,2024-11-20 13h51.09.480090 +0530,
42,0,42,0,267.7122979001142,,,,,,,,,267.6978118000552,267.7122979001142,268.2126191002317,268.2126191002317,268.7136666998267,268.697706699837,268.69772240007296,273.70294740004465,['c'],[1.32606380013749],[0.09489110019057989],1,STID,['c'],False,063361,001,2024-11-20_13h51.02.591,PartialReportMethod,2024.1.5,None,2024-11-20 13h51.09.480090 +0530,
43,0,43,0,273.7190405000001,,,,,,,,,273.70377100026235,273.7190405000001,274.2026133001782,274.2196479002014,274.70357690006495,274.68762640003115,274.687640900258,279.6933263000101,"['h', 'u']","[0.9862472997047007, 1.1572010996751487]","[0.07719750003889203, 0.08219350036233664]",1,HUAN,"['h', 'u']",False,063361,001,2024-11-20_13h51.02.591,PartialReportMethod,2024.1.5,None,2024-11-20 13h51.09.480090 +0530,
44,0,44,0,279.70872840005904,,,,,,,,,279.6941492999904,279.70872840005904,280.20898550003767,280.20898550003767,280.71005780017003,280.6943811001256,280.6944019999355,285.69968280009925,"['j', 'u']","[0.814877700060606, 1.0077180997468531]","[0.09388459986075759, 0.07922179996967316]",1,JUDK,"['j', 'u']",False,063361,001,2024-11-20_13h51.02.591,PartialReportMethod,2024.1.5,None,2024-11-20 13h51.09.480090 +0530,
45,0,45,0,285.71578880026937,,,,,,,,,285.7012832001783,285.71578880026937,286.2158110002056,286.2158110002056,286.7168095000088,286.7003469001502,286.7003808999434,291.70561429997906,['n'],[1.7697703996673226],[0.07913570012897253],2,MMWR,['n'],False,063361,001,2024-11-20_13h51.02.591,PartialReportMethod,2024.1.5,None,2024-11-20 13h51.09.480090 +0530,
46,0,46,0,291.7225199001841,,,,,,,,,291.70666449982673,291.7225199001841,292.20615789992735,292.222509900108,292.70648209983483,292.6904862001538,292.69050160003826,297.69604529999197,"['c', 'g']","[0.6954093999229372, 1.1069589997641742]","[0.08255679998546839, 0.08186080027371645]",2,CGJJ,"['c', 'g']",False,063361,001,2024-11-20_13h51.02.591,PartialReportMethod,2024.1.5,None,2024-11-20 13h51.09.480090 +0530,
47,0,47,0,297.712042900268,,,,,,,,,297.69713070010766,297.712042900268,298.21275720000267,298.21275720000267,298.7127502998337,298.696778499987,298.69679359998554,303.70295279985294,"['r', 'v']","[1.7175285001285374, 2.055415299721062]","[0.08526139985769987, 0.0881935004144907]",0,RVGM,"['r', 'v']",False,063361,001,2024-11-20_13h51.02.591,PartialReportMethod,2024.1.5,None,2024-11-20 13h51.09.480090 +0530,
48,0,48,0,303.7187450998463,,,,,,,,,303.7040515001863,303.7187450998463,304.2024607998319,304.2192684998736,304.7035914999433,304.68765529990196,304.68767450004816,309.69426529994234,"['y', 'd']","[0.8694803002290428, 1.1490023001097143]","[0.0797418998554349, 0.06137220002710819]",0,YDQV,"['y', 'd']",False,063361,001,2024-11-20_13h51.02.591,PartialReportMethod,2024.1.5,None,2024-11-20 13h51.09.480090 +0530,
49,0,49,0,309.7094525001012,,,,,,,,,309.69580890005454,309.7094525001012,310.20875940006226,310.20875940006226,310.708951999899,310.6931683998555,310.6931854998693,315.69928460009396,['g'],[0.9411268001422286],[0.07294509978964925],0,GVOW,['g'],False,063361,001,2024-11-20_13h51.02.591,PartialReportMethod,2024.1.5,None,2024-11-20 13h51.09.480090 +0530,
50,0,50,0,315.71515360008925,,,,,,,,,315.70009890012443,315.71515360008925,316.21573279984295,316.21573279984295,316.71629530005157,316.701001400128,316.70101730013266,321.70527929998934,['g'],[1.4057036000303924],[0.06934829987585545],1,GAXQ,['g'],False,063361,001,2024-11-20_13h51.02.591,PartialReportMethod,2024.1.5,None,2024-11-20 13h51.09.480090 +0530,
51,0,51,0,321.72160550020635,,,,,,,,,321.7063954002224,321.72160550020635,322.20571740018204,322.22220080019906,322.706637899857,322.69036380015314,322.69038309995085,327.69619739986956,"['z', 'z']","[0.7511041997931898, 0.9684534999541938]","[0.0893779001198709, 0.0794150996953249]",1,ZZXR,"['z', 'z']",False,063361,001,2024-11-20_13h51.02.591,PartialReportMethod,2024.1.5,None,2024-11-20 13h51.09.480090 +0530,
52,0,52,0,327.71191149996594,,,,,,,,,327.69733030023053,327.71191149996594,328.21228069998324,328.21228069998324,328.7138446001336,328.69696100009605,328.69697940023616,333.7025786000304,"['i', 'g']","[2.024897400289774, 2.7309922999702394]","[0.07503250008448958, 0.0974431000649929]",2,IGVC,"['i', 'g']",False,063361,001,2024-11-20_13h51.02.591,PartialReportMethod,2024.1.5,None,2024-11-20 13h51.09.480090 +0530,
53,0,53,0,333.71832840004936,,,,,,,,,333.7034088000655,333.71832840004936,334.2020930000581,334.21906779985875,334.70300889993086,334.6868762001395,334.68689170014113,339.6931778001599,"['l', 'g']","[1.8654550001956522, 2.1090687001124024]","[0.06618479965254664, 0.07538469973951578]",1,JFVA,"['l', 'g']",False,063361,001,2024-11-20_13h51.02.591,PartialReportMethod,2024.1.5,None,2024-11-20 13h51.09.480090 +0530,
54,0,54,0,339.70834589982405,,,,,,,,,339.6945909000933,339.70834589982405,340.20937559986487,340.20937559986487,340.70944230025634,340.6928999000229,340.69291510013863,345.6993029001169,"['i', 'k']","[0.7777800997719169, 0.9706572997383773]","[0.08005629992112517, 0.09021300030872226]",1,IKLN,"['i', 'k']",False,063361,001,2024-11-20_13h51.02.591,PartialReportMethod,2024.1.5,None,2024-11-20 13h51.09.480090 +0530,
55,0,55,0,345.7143534999341,,,,,,,,,345.70084029994905,345.7143534999341,346.21537890005857,346.21537890005857,346.7159044998698,346.6998457000591,346.69986229995266,351.7043809001334,"['e', 'f']","[1.2014621999114752, 1.5533007001504302]","[0.07824059994891286, 0.09594489959999919]",0,JQEO,"['e', 'f']",False,063361,001,2024-11-20_13h51.02.591,PartialReportMethod,2024.1.5,None,2024-11-20 13h51.09.480090 +0530,
56,0,56,0,351.7217157999985,,,,,,,,,351.7059055999853,351.7217157999985,352.2050765999593,352.22176280012354,352.70587459998205,352.689754600171,352.68977069994435,357.69533570017666,"['w', 'p']","[0.6753789000213146, 1.3035041000694036]","[0.053676600102335215, 0.060464299749583006]",2,WPFZ,"['w', 'p']",False,063361,001,2024-11-20_13h51.02.591,PartialReportMethod,2024.1.5,None,2024-11-20 13h51.09.480090 +0530,
57,0,57,0,357.71181729994714,,,,,,,,,357.69619309995323,357.71181729994714,358.2121342001483,358.2121342001483,358.7127808998339,358.69695060001686,358.6969659999013,363.7027401998639,"['q', 'l']","[1.2649062001146376, 1.6696672001853585]","[0.1010894002392888, 0.0627429997548461]",2,QLBW,"['q', 'l']",False,063361,001,2024-11-20_13h51.02.591,PartialReportMethod,2024.1.5,None,2024-11-20 13h51.09.480090 +0530,
58,0,58,0,363.71786420000717,,,,,,,,,363.7035957998596,363.71786420000717,364.2018868001178,364.2192541998811,364.7025252999738,364.68674769997597,364.6867630002089,369.6920670000836,"['d', 'u']","[0.8254081001505256, 1.3660272001288831]","[0.09011710016056895, 0.06831480003893375]",1,IGNJ,"['d', 'u']",False,063361,001,2024-11-20_13h51.02.591,PartialReportMethod,2024.1.5,None,2024-11-20 13h51.09.480090 +0530,
59,0,59,0,369.7081260001287,,,,,,,,,369.69314920017496,369.7081260001287,370.20855259988457,370.20855259988457,370.7089213998988,370.69318509986624,370.6932013002224,375.6986409998499,"['s', 'j']","[1.0193786001764238, 2.109829000197351]","[0.08574619982391596, 0.06161820003762841]",1,SSZW,"['s', 'j']",False,063361,001,2024-11-20_13h51.02.591,PartialReportMethod,2024.1.5,None,2024-11-20 13h51.09.480090 +0530,
60,0,60,0,375.71443880023435,,,,,,,,,375.69973189989105,375.71443880023435,376.2153802001849,376.2153802001849,376.7156648002565,376.6997618000023,376.6997810001485,381.70468469988555,"['p', 'k']","[0.9501375998370349, 1.5330223999917507]","[0.08848620019853115, 0.06746779987588525]",0,PNLD,"['p', 'k']",False,063361,001,2024-11-20_13h51.02.591,PartialReportMethod,2024.1.5,None,2024-11-20 13h51.09.480090 +0530,
61,0,61,0,381.721048399806,,,,,,,,,381.7058053002693,381.721048399806,382.20513979997486,382.2218341999687,382.70584880001843,382.6895679999143,382.68962919991463,387.69573849998415,"['f', 'r']","[0.8886267999187112, 1.0534318001009524]","[0.08515190007165074, 0.086606299970299]",2,FRYZ,"['f', 'r']",False,063361,001,2024-11-20_13h51.02.591,PartialReportMethod,2024.1.5,None,2024-11-20 13h51.09.480090 +0530,
62,0,62,0,387.7111271000467,,,,,,,,,387.6965671000071,387.7111271000467,388.21159479999915,388.21159479999915,388.71294709993526,388.6970139001496,388.69702830025926,393.7018261998892,"['r', 'k']","[1.002013299614191, 1.5692901997826993]","[0.07607319997623563, 0.06600960018113256]",1,SYBG,"['r', 'k']",False,063361,001,2024-11-20_13h51.02.591,PartialReportMethod,2024.1.5,None,2024-11-20 13h51.09.480090 +0530,
63,0,63,0,393.71777749992907,,,,,,,,,393.7027096999809,393.71777749992907,394.2015873999335,394.2185786999762,394.70249149994925,394.68647770024836,394.6864924002439,399.69180150004104,"['k', 'c']","[1.1037266999483109, 1.8519346001558006]","[0.07922259997576475, 0.08058580011129379]",2,QATV,"['k', 'c']",False,063361,001,2024-11-20_13h51.02.591,PartialReportMethod,2024.1.5,None,2024-11-20 13h51.09.480090 +0530,
64,0,64,0,399.7076960001141,,,,,,,,,399.69296240014955,399.7076960001141,400.2084424998611,400.2084424998611,400.70900289993733,400.6929132998921,400.69292910024524,405.69853200018406,"['k', 'n']","[1.0346676004119217, 1.763969300314784]","[0.08974799979478121, 0.07854979997500777]",1,RNJA,"['k', 'n']",False,063361,001,2024-11-20_13h51.02.591,PartialReportMethod,2024.1.5,None,2024-11-20 13h51.09.480090 +0530,
65,0,65,0,405.71441389992833,,,,,,,,,405.6998009001836,405.71441389992833,406.2149967998266,406.2149967998266,406.7155515998602,406.6997226001695,406.6997386999428,411.7047688001767,"['s', 'q']","[1.0945270000956953, 1.4631285998038948]","[0.08022579969838262, 0.09221170004457235]",0,SQYG,"['s', 'q']",False,063361,001,2024-11-20_13h51.02.591,PartialReportMethod,2024.1.5,None,2024-11-20 13h51.09.480090 +0530,
66,0,66,0,411.72097769984975,,,,,,,,,411.7057564002462,411.72097769984975,412.20501830009744,412.2218633000739,412.7052338998765,412.68961799982935,412.6896462999284,417.6950802002102,"['s', 'o']","[0.5952820000238717, 1.0802834001369774]","[0.0836545997299254, 0.06898339977487922]",0,SOEB,"['s', 'o']",False,063361,001,2024-11-20_13h51.02.591,PartialReportMethod,2024.1.5,None,2024-11-20 13h51.09.480090 +0530,
67,0,67,0,417.71098840003833,,,,,,,,,417.6963257002644,417.71098840003833,418.21129290014505,418.21129290014505,418.7115997001529,418.6963495002128,418.6963658002205,423.7012478001416,"['p', 'u']","[1.053504700306803, 1.443896499928087]","[0.08303530002012849, 0.05664900038391352]",2,AOXC,"['p', 'u']",False,063361,001,2024-11-20_13h51.02.591,PartialReportMethod,2024.1.5,None,2024-11-20 13h51.09.480090 +0530,
68,0,68,0,423.71747570019215,,,,,,,,,423.7020588000305,423.71747570019215,424.20137919997796,424.2183028999716,424.7023642002605,424.68623680016026,424.6862520999275,429.69138569990173,"['p', 'b']","[0.9094263003207743, 1.4029148002155125]","[0.07019389979541302, 0.05426950007677078]",2,PBCW,"['p', 'b']",False,063361,001,2024-11-20_13h51.02.591,PartialReportMethod,2024.1.5,None,2024-11-20 13h51.09.480090 +0530,
69,0,69,0,429.70779119990766,,,,,,,,,429.6925039002672,429.70779119990766,430.2087769000791,430.2087769000791,430.70886470004916,430.6926277000457,430.6926461001858,435.6980033,"['f', 't']","[0.7656433996744454, 0.9576837997883558]","[0.08065150026232004, 0.07518009981140494]",2,FTUQ,"['f', 't']",False,063361,001,2024-11-20_13h51.02.591,PartialReportMethod,2024.1.5,None,2024-11-20 13h51.09.480090 +0530,
70,0,70,0,435.714098200202,,,,,,,,,435.6997063998133,435.714098200202,436.2146498998627,436.2146498998627,436.71537909982726,436.69959039986134,436.69960639998317,441.7044016998261,"['s', 'd']","[2.2768748998641968, 2.495477399788797]","[0.09550070017576218, 0.08586739981546998]",0,VGBQ,"['s', 'd']",False,063361,001,2024-11-20_13h51.02.591,PartialReportMethod,2024.1.5,None,2024-11-20 13h51.09.480090 +0530,
71,0,71,0,441.72083539981395,,,,,,,,,441.7054062001407,441.72083539981395,442.2047546999529,442.22211050009355,442.7059773998335,442.68949329992756,442.6895138002001,447.69484200002626,"['e', 'd']","[0.8121235999278724, 0.988129900302738]","[0.07895120000466704, 0.07628030003979802]",0,UEMD,"['e', 'd']",False,063361,001,2024-11-20_13h51.02.591,PartialReportMethod,2024.1.5,None,2024-11-20 13h51.09.480090 +0530,
72,0,72,0,447.7104882001877,,,,,,,,,447.69599180016667,447.7104882001877,448.21111850021407,448.21111850021407,448.71187940007076,448.6960828001611,448.6961050000973,453.7014752998948,"['g', 'v']","[0.8028082000091672, 1.1205632002092898]","[0.08666829997673631, 0.07814549980685115]",1,GVCN,"['g', 'v']",False,063361,001,2024-11-20_13h51.02.591,PartialReportMethod,2024.1.5,None,2024-11-20 13h51.09.480090 +0530,
73,0,73,0,453.720448799897,,,,,,,,,453.7023650999181,453.720448799897,454.2179589001462,454.23443390009925,454.7182955001481,454.70252020005137,454.7025354998186,459.70743909990415,"['e', 'd']","[0.8338040998205543, 0.982466199900955]","[0.08168089995160699, 0.08489130018278956]",0,SUGW,"['e', 'd']",False,063361,001,2024-11-20_13h51.02.591,PartialReportMethod,2024.1.5,None,2024-11-20 13h51.09.480090 +0530,
74,0,74,0,459.7240046001971,,,,,,,,,459.7084328001365,459.7240046001971,460.20770880021155,460.2245559999719,460.70845990022644,460.6926270001568,460.69264360005036,465.6975573999807,"['p', 'y', 'i']","[1.003262700047344, 1.4181727999821305, 1.8022449002601206]","[0.07828360004350543, 0.08477890025824308, 0.06910010008141398]",0,PYKI,"['p', 'y', 'i']",False,063361,001,2024-11-20_13h51.02.591,PartialReportMethod,2024.1.5,None,2024-11-20 13h51.09.480090 +0530,
75,0,75,0,465.71404580026865,,,,,,,,,465.6986243999563,465.71404580026865,466.2142385998741,466.2142385998741,466.71531370002776,466.69942100020126,466.69943680008873,471.70425290009007,"['e', 'd']","[1.1242496999911964, 1.281276899855584]","[0.07493179989978671, 0.07848639972507954]",1,ECBE,"['e', 'd']",False,063361,001,2024-11-20_13h51.02.591,PartialReportMethod,2024.1.5,None,2024-11-20 13h51.09.480090 +0530,
76,0,76,0,471.7216540998779,,,,,,,,,471.70595919992775,471.7216540998779,472.20373940002173,472.23843989986926,472.70556179992855,472.6899051000364,472.68993350025266,477.6937739001587,"['u', 'c']","[0.735752500128001, 1.1662429003044963]","[0.06580450013279915, 0.06898419978097081]",0,UCKD,"['u', 'c']",False,063361,001,2024-11-20_13h51.02.591,PartialReportMethod,2024.1.5,None,2024-11-20 13h51.09.480090 +0530,
77,0,77,0,477.7095999000594,,,,,,,,,477.6946127000265,477.7095999000594,478.2110760998912,478.2110760998912,478.7117634001188,478.69612400000915,478.6961457999423,483.7015582001768,"['i', 'g']","[0.44358929991722107, 0.858873900026083]","[0.08905299985781312, 0.07237969990819693]",1,IGGY,"['i', 'g']",False,063361,001,2024-11-20_13h51.02.591,PartialReportMethod,2024.1.5,None,2024-11-20 13h51.09.480090 +0530,
78,0,78,0,483.71718310005963,,,,,,,,,483.7026535002515,483.71718310005963,484.2188605000265,484.2188605000265,,484.70329299988225,484.70332479989156,489.70667360024527,"['g', 'h']","[0.6800337000750005, 0.8465051003731787]","[0.07509340019896626, 0.07272870000451803]",0,GZHN,"['g', 'h']",False,063361,001,2024-11-20_13h51.02.591,PartialReportMethod,2024.1.5,None,2024-11-20 13h51.09.480090 +0530,
79,0,79,0,489.7230123998597,,,,,,,,,489.7082934998907,489.7230123998597,490.20726939989254,490.22375279990956,490.70796689996496,490.6923111001961,490.69232999999076,495.69767449982464,"['m', 'd']","[0.6731729996390641, 1.144332999829203]","[0.05201019998639822, 0.07584669999778271]",0,MDID,"['m', 'd']",False,063361,001,2024-11-20_13h51.02.591,PartialReportMethod,2024.1.5,None,2024-11-20 13h51.09.480090 +0530,
80,0,80,0,495.71354900021106,,,,,,,,,495.70013089990243,495.71354900021106,496.21368859987706,496.21368859987706,496.71495509985834,496.69830319983885,496.6983336000703,501.7037049001083,"['m', 'd']","[1.0392454001121223, 1.4357517999596894]","[0.06873559998348355, 0.06908380007371306]",2,ZDZW,"['m', 'd']",False,063361,001,2024-11-20_13h51.02.591,PartialReportMethod,2024.1.5,None,2024-11-20 13h51.09.480090 +0530,
81,0,81,0,501.7201757002622,,,,,,,,,501.705046699848,501.7201757002622,502.20354449981824,502.2202067002654,502.70442190021276,502.68812970025465,502.6881456999108,507.69476470025256,['v'],[1.2362693999893963],[0.09859229996800423],2,VRBK,['v'],False,063361,001,2024-11-20_13h51.02.591,PartialReportMethod,2024.1.5,None,2024-11-20 13h51.09.480090 +0530,
82,0,82,0,507.71080570016056,,,,,,,,,507.69630340021104,507.71080570016056,508.2101937001571,508.2101937001571,508.71236360026523,508.69482700014487,508.69484650017694,513.7005066000856,"['a', 'e']","[1.0085167000070214, 1.292310900054872]","[0.10632140003144741, 0.09165039984509349]",0,UXNN,"['a', 'e']",False,063361,001,2024-11-20_13h51.02.591,PartialReportMethod,2024.1.5,None,2024-11-20 13h51.09.480090 +0530,
83,0,83,0,513.7166022001766,,,,,,,,,513.7016871999949,513.7166022001766,514.2176406001672,514.2176406001672,514.718924799934,514.7019337001257,514.701955600176,519.7064999998547,"['w', 's', 'e']","[0.5452688001096249, 1.864593300037086, 2.0906724999658763]","[0.08607219997793436, 0.07538119982928038, 0.08616170007735491]",0,SEZN,"['w', 's', 'e']",False,063361,001,2024-11-20_13h51.02.591,PartialReportMethod,2024.1.5,None,2024-11-20 13h51.09.480090 +0530,
84,0,84,0,519.7231470001861,,,,,,,,,519.7075026999228,519.7231470001861,520.2064701998606,520.2239656001329,520.7080339998938,520.6913045002148,520.6913201999851,525.6978902001865,"['u', 'i']","[0.9168567000888288, 1.3422946999780834]","[0.08524940023198724, 0.07643850008025765]",2,HSCL,"['u', 'i']",False,063361,001,2024-11-20_13h51.02.591,PartialReportMethod,2024.1.5,None,2024-11-20 13h51.09.480090 +0530,
85,0,85,0,525.7135220998898,,,,,,,,,525.6991054001264,525.7135220998898,526.2132073999383,526.2132073999383,526.7141774999909,526.6979666999541,526.6979861999862,531.7036768002436,"['r', 'u']","[0.9712986000813544, 1.3540798001922667]","[0.08720589987933636, 0.0879790997132659]",1,RUHY,"['r', 'u']",False,063361,001,2024-11-20_13h51.02.591,PartialReportMethod,2024.1.5,None,2024-11-20 13h51.09.480090 +0530,
86,0,86,0,531.7213826002553,,,,,,,,,531.7058294001035,531.7213826002553,532.2033473001793,532.2368776998483,532.7043822002597,532.6878038998693,532.6878276998177,537.6943100998178,"['t', 'q']","[0.5990372002124786, 1.1518588000908494]","[0.07862819964066148, 0.0812389999628067]",1,TQYW,"['t', 'q']",False,063361,001,2024-11-20_13h51.02.591,PartialReportMethod,2024.1.5,None,2024-11-20 13h51.09.480090 +0530,
87,0,87,0,537.7107808999717,,,,,,,,,537.6967461998574,537.7107808999717,538.2101035001688,538.2101035001688,538.7111625000834,538.6949763000011,538.6950489999726,543.7011828999966,['s'],[1.7194542000070214],[0.07403639983385801],1,RBLP,['s'],False,063361,001,2024-11-20_13h51.02.591,PartialReportMethod,2024.1.5,None,2024-11-20 13h51.09.480090 +0530,
88,0,88,0,543.7198352999985,,,,,,,,,543.7037387001328,543.7198352999985,544.2164210998453,544.2340383999981,544.7171351001598,544.7014800999314,544.7015064000152,549.7071671001613,"['t', 'w']","[0.8395113996230066, 0.9709707996807992]","[0.07625130005180836, 0.08083410002291203]",2,TWOG,"['t', 'w']",False,063361,001,2024-11-20_13h51.02.591,PartialReportMethod,2024.1.5,None,2024-11-20 13h51.09.480090 +0530,
89,0,89,0,549.7245804998092,,,,,,,,,549.7091802000068,549.7245804998092,550.2068528998643,550.2399826999754,550.7070295000449,550.6910562999547,550.691100299824,555.6975183002651,"['b', 'y']","[1.3928429000079632, 1.8319040001370013]","[0.09071409981697798, 0.07183909974992275]",0,BKBY,"['b', 'y']",False,063361,001,2024-11-20_13h51.02.591,PartialReportMethod,2024.1.5,None,2024-11-20 13h51.09.480090 +0530,
90,0,90,0,555.7129847002216,,,,,,,,,555.6995982001536,555.7129847002216,556.2129640001804,556.2129640001804,556.713490600232,556.6975850998424,556.6976012000814,561.703089099843,"['q', 'a', 'v']","[0.6687278999015689, 0.9336347999051213, 1.7904456998221576]","[0.09962960006669164, 0.08258359972387552, 0.08501610020175576]",2,QAFN,"['q', 'a', 'v']",False,063361,001,2024-11-20_13h51.02.591,PartialReportMethod,2024.1.5,None,2024-11-20 13h51.09.480090 +0530,
91,0,91,0,561.7201343998313,,,,,,,,,561.7051254999824,561.7201343998313,562.2039093002677,562.220651099924,562.7034734999761,562.6882492001168,562.6882658000104,567.694106800016,"['q', 'k']","[0.7705433000810444, 1.1195589997805655]","[0.07817119965329766, 0.0864389999769628]",1,QKLN,"['q', 'k']",False,063361,001,2024-11-20_13h51.02.591,PartialReportMethod,2024.1.5,None,2024-11-20 13h51.09.480090 +0530,
92,0,92,0,567.7101912000217,,,,,,,,,567.6978123001754,567.7101912000217,568.2103392998688,568.2103392998688,568.7100999001414,568.6944277998991,568.6944566001184,573.7002313998528,"['q', 'e']","[0.5833668000996113, 0.947686200030148]","[0.09630159987136722, 0.08089770004153252]",0,QXXL,"['q', 'e']",False,063361,001,2024-11-20_13h51.02.591,PartialReportMethod,2024.1.5,None,2024-11-20 13h51.09.480090 +0530,
93,0,93,0,573.7157697002403,,,,,,,,,573.701050600037,573.7157697002403,574.2166686002165,574.2166686002165,574.7171324999072,574.700675399974,574.7006911998615,579.70586729981,"['i', 'e']","[1.2384707001037896, 1.3858511000871658]","[0.09477579966187477, 0.08018159959465265]",0,IIAG,"['i', 'e']",False,063361,001,2024-11-20_13h51.02.591,PartialReportMethod,2024.1.5,None,2024-11-20 13h51.09.480090 +0530,
94,0,94,0,579.7226511999033,,,,,,,,,579.7070566001348,579.7226511999033,580.2068365998566,580.2236116002314,580.7076862999238,580.6923158001155,580.6923589999788,585.6961815999821,"['f', 'r']","[0.7143520000390708, 0.8667603000067174]","[0.07913589989766479, 0.08304220018908381]",1,FRJV,"['f', 'r']",False,063361,001,2024-11-20_13h51.02.591,PartialReportMethod,2024.1.5,None,2024-11-20 13h51.09.480090 +0530,
95,0,95,0,585.7128588999622,,,,,,,,,585.6973453001119,585.7128588999622,586.2145342002623,586.2145342002623,586.7151628998108,586.6986348000355,586.6986619001254,591.7027902002446,"['f', 'e']","[1.4302618997171521, 1.549409399740398]","[0.0788964000530541, 0.0658678999170661]",2,FOMO,"['f', 'e']",False,063361,001,2024-11-20_13h51.02.591,PartialReportMethod,2024.1.5,None,2024-11-20 13h51.09.480090 +0530,
96,0,96,0,591.719364900142,,,,,,,,,591.7037106002681,591.719364900142,592.2026833002456,592.2195553998463,592.7037563002668,592.6880423999391,592.6880573998205,597.6925510000437,"['j', 'a']","[0.8156963000074029, 0.9578218995593488]","[0.08894009981304407, 0.08796010026708245]",1,JAGE,"['j', 'a']",False,063361,001,2024-11-20_13h51.02.591,PartialReportMethod,2024.1.5,None,2024-11-20 13h51.09.480090 +0530,
97,0,97,0,597.7086065001786,,,,,,,,,597.6937150000595,597.7086065001786,598.2092269998975,598.2092269998975,598.7103133001365,598.6956915999763,598.695725900121,603.6999897002243,"['e', 'q']","[1.8024265998974442, 2.106529699638486]","[0.06606919970363379, 0.09776200028136373]",2,BQFI,"['e', 'q']",False,063361,001,2024-11-20_13h51.02.591,PartialReportMethod,2024.1.5,None,2024-11-20 13h51.09.480090 +0530,
98,0,98,0,603.7163104000501,,,,,,,,,603.7016410999931,603.7163104000501,604.2163289999589,604.2163289999589,604.7167636998929,604.7006124001928,604.7006303998642,609.7067899000831,"['i', 'o']","[0.8070171000435948, 0.9722007000818849]","[0.08258790010586381, 0.08578559989109635]",1,IOJD,"['i', 'o']",False,063361,001,2024-11-20_13h51.02.591,PartialReportMethod,2024.1.5,None,2024-11-20 13h51.09.480090 +0530,
99,0,99,0,609.7219350002706,,,,,,,,,609.7083812998608,609.7219350002706,610.2056112000719,610.2228868999518,610.7074285000563,610.6913848002441,610.6914118002169,615.6971622998826,"['r', 'c']","[0.8847118997946382, 1.5913916998542845]","[0.07577090011909604, 0.07214479986578226]",1,GQCV,"['r', 'c']",False,063361,001,2024-11-20_13h51.02.591,PartialReportMethod,2024.1.5,None,2024-11-20 13h51.09.480090 +0530,
