trials.thisRepN,trials.thisTrialN,trials.thisN,trials.thisIndex,thisRow.t,notes,introduction.started,text.started,key_resp_2.started,introduction.stopped,key_resp_2.keys,key_resp_2.rt,key_resp_2.duration,trial.started,letter_grid.started,row_cue.started,letter_grid.stopped,row_cue.stopped,trial.stopped,response_routine.started,response_routine.stopped,response.keys,Cued Row,Correct Row,Participant Response,Is Correct,response.rt,response.duration,participant,session,date,expName,psychopyVersion,frameRate,expStart,
,,,,,,0.0029457001946866512,0.009969200007617474,0.009969200007617474,18.466249300166965,space,18.4544154999312,None,,,,,,,,,,,,,,,,134013,001,2024-11-17_15h21.31.175,PartialReportMethod,2024.1.5,None,2024-11-17 15h21.37.689109 +0530,
0,0,0,0,18.487488700076938,,,,,,,,,18.469593700021505,18.487488700076938,18.98143190005794,18.998090000124648,19.48201659996994,19.466727700084448,19.46676370012574,24.470885700080544,None,2,KTMP,None,False,,,134013,001,2024-11-17_15h21.31.175,PartialReportMethod,2024.1.5,None,2024-11-17 15h21.37.689109 +0530,
1,0,1,0,24.580072000157088,,,,,,,,,24.472849500132725,24.580072000157088,24.971658300142735,25.088323200121522,25.471650999970734,25.45704760006629,25.457074400037527,30.461532700108364,"['j', 'm']",1,JNHE,"['j', 'm']",False,"[1.176485300064087, 1.5025028001982719]","[0.17349700001068413, 0.16798699996434152]",134013,001,2024-11-17_15h21.31.175,PartialReportMethod,2024.1.5,None,2024-11-17 15h21.37.689109 +0530,
2,0,2,0,30.477232299977913,,,,,,,,,30.464107300154865,30.477232299977913,30.97812860016711,30.97812860016711,31.478328000055626,31.46306230011396,31.463090799981728,36.4671840001829,"['a', 'q']",0,AOQT,"['a', 'q']",False,"[1.1509045001585037, 1.566263300133869]","[0.2439287998713553, 0.2442332999780774]",134013,001,2024-11-17_15h21.31.175,PartialReportMethod,2024.1.5,None,2024-11-17 15h21.37.689109 +0530,
3,0,3,0,36.48365609999746,,,,,,,,,36.469212300144136,36.48365609999746,36.96872430015355,36.98482979997061,37.46823090012185,37.45267600007355,37.45270190015435,42.45823059999384,"['w', 'a']",1,WAFY,"['w', 'a']",False,"[1.1243038999382406, 1.6266618000809103]","[0.21125140017829835, 0.25207110005430877]",134013,001,2024-11-17_15h21.31.175,PartialReportMethod,2024.1.5,None,2024-11-17 15h21.37.689109 +0530,
4,0,4,0,42.4750681000296,,,,,,,,,42.46107230009511,42.4750681000296,42.97468940005638,42.97468940005638,43.47524180007167,43.45982170011848,43.4598550000228,48.464887000154704,"['w', 'i']",0,VXIZ,"['w', 'i']",False,"[0.7111993001308292, 1.0400149000342935]","[0.21834839996881783, 0.23175749997608364]",134013,001,2024-11-17_15h21.31.175,PartialReportMethod,2024.1.5,None,2024-11-17 15h21.37.689109 +0530,
5,0,5,0,48.481050700182095,,,,,,,,,48.467787800123915,48.481050700182095,48.98157880012877,48.98157880012877,49.481711599975824,49.466114700073376,49.466149900108576,54.47075149999,"['u', 'n']",2,UNAG,"['u', 'n']",False,"[0.5833549001254141, 0.9294777999166399]","[0.187548799905926, 0.18716330011375248]",134013,001,2024-11-17_15h21.31.175,PartialReportMethod,2024.1.5,None,2024-11-17 15h21.37.689109 +0530,
6,0,6,0,54.489765600068495,,,,,,,,,54.473827900132164,54.489765600068495,54.97107420000248,55.00482700020075,55.47154780011624,55.456384600140154,55.45641570002772,60.461207000073045,"['g', 'c']",1,GGLX,"['g', 'c']",False,"[1.0076969000510871, 1.6374945999123156]","[0.21331619983538985, 0.2544621000997722]",134013,001,2024-11-17_15h21.31.175,PartialReportMethod,2024.1.5,None,2024-11-17 15h21.37.689109 +0530,
7,0,7,0,60.47701940010302,,,,,,,,,60.463283700169995,60.47701940010302,60.977829300099984,60.977829300099984,61.478536900132895,61.46280000009574,61.4628340001218,66.46716850018129,"['c', 'x']",2,CXTN,"['c', 'x']",False,"[0.7103463001549244, 1.331504800124094]","[0.22007949999533594, 0.2511257999576628]",134013,001,2024-11-17_15h21.31.175,PartialReportMethod,2024.1.5,None,2024-11-17 15h21.37.689109 +0530,
8,0,8,0,66.4835057000164,,,,,,,,,66.46999580017291,66.4835057000164,66.96799080003984,66.98553690011613,67.46869430015795,67.45356410020031,67.45360360015184,72.45872620004229,"['b', 'h']",0,BHHX,"['b', 'h']",False,"[1.211176399840042, 1.4593286998569965]","[0.12975590000860393, 0.1650058999657631]",134013,001,2024-11-17_15h21.31.175,PartialReportMethod,2024.1.5,None,2024-11-17 15h21.37.689109 +0530,
9,0,9,0,72.4747993000783,,,,,,,,,72.46115340013057,72.4747993000783,72.97441050014459,72.97441050014459,73.47516590007581,73.46106410003267,73.46110250009224,78.46483840001747,"['g', 'n']",0,GNYL,"['g', 'n']",False,"[0.9784750000108033, 1.19933050009422]","[0.2378595001064241, 0.20151620008982718]",134013,001,2024-11-17_15h21.31.175,PartialReportMethod,2024.1.5,None,2024-11-17 15h21.37.689109 +0530,
10,0,10,0,78.48063810006715,,,,,,,,,78.4675043001771,78.48063810006715,78.98115590005182,78.98115590005182,79.48210450005718,79.46682440000586,79.46686270018108,84.47040540003218,"['t', 'r']",0,TRKM,"['t', 'r']",False,"[0.6019630001392215, 0.8975994000211358]","[0.21466260007582605, 0.2068197000771761]",134013,001,2024-11-17_15h21.31.175,PartialReportMethod,2024.1.5,None,2024-11-17 15h21.37.689109 +0530,
11,0,11,0,84.48834870010614,,,,,,,,,84.47320820018649,84.48834870010614,84.97074949997477,84.98790409998037,85.4713557001669,85.45634200004861,85.45637730020098,90.46166010014713,"['g', 'f']",0,GFWF,"['g', 'f']",False,"[0.5782852000556886, 1.1389814000576735]","[0.23022040002979338, 0.25214189989492297]",134013,001,2024-11-17_15h21.31.175,PartialReportMethod,2024.1.5,None,2024-11-17 15h21.37.689109 +0530,
12,0,12,0,90.47786500002258,,,,,,,,,90.46526410011575,90.47786500002258,90.97836680011824,90.97836680011824,91.47785370005295,91.46270829997957,91.46333130006678,96.46768240001984,"['w', 'o']",2,VQZE,"['w', 'o']",False,"[1.7817251000087708, 2.0086936000734568]","[0.27962500019930303, 0.27121110004372895]",134013,001,2024-11-17_15h21.31.175,PartialReportMethod,2024.1.5,None,2024-11-17 15h21.37.689109 +0530,
13,0,13,0,96.48548729997128,,,,,,,,,96.47159230010584,96.48548729997128,96.96773100015707,97.00097300019115,97.46882810001262,97.45344520010985,97.45348240016028,102.45889290003106,"['v', 'r']",1,VRGW,"['v', 'r']",False,"[1.0786860000807792, 1.8488541000988334]","[0.24706239998340607, 0.27354350010864437]",134013,001,2024-11-17_15h21.31.175,PartialReportMethod,2024.1.5,None,2024-11-17 15h21.37.689109 +0530,
14,0,14,0,102.47534580016509,,,,,,,,,102.4615740000736,102.47534580016509,102.97461520018987,102.99084830004722,103.47419159999117,103.46027150005102,103.46034340001643,108.46547120017931,"['x', 'i']",1,XILY,"['x', 'i']",False,"[1.2564995000138879, 1.6604345999658108]","[0.2553498998750001, 0.21761589986272156]",134013,001,2024-11-17_15h21.31.175,PartialReportMethod,2024.1.5,None,2024-11-17 15h21.37.689109 +0530,
15,0,15,0,108.48086740006693,,,,,,,,,108.46882240008563,108.48086740006693,108.98073310009204,108.98073310009204,109.48172749998048,109.465624100063,109.465656200191,114.47073860000819,"['t', 'e']",0,TEND,"['t', 'e']",False,"[2.0739454000722617, 2.4950639999005944]","[0.23382729990407825, 0.21706040017306805]",134013,001,2024-11-17_15h21.31.175,PartialReportMethod,2024.1.5,None,2024-11-17 15h21.37.689109 +0530,
16,0,16,0,114.48825679998845,,,,,,,,,114.47454590001144,114.48825679998845,114.9709831001237,114.98721410008147,115.47145150019787,115.45720270019956,115.45724930008873,120.46135160000995,"['r', 't']",2,RTZV,"['r', 't']",False,"[1.3864937999751419, 1.6933407997712493]","[0.2206933000124991, 0.20791590004228055]",134013,001,2024-11-17_15h21.31.175,PartialReportMethod,2024.1.5,None,2024-11-17 15h21.37.689109 +0530,
17,0,17,0,120.47657530009747,,,,,,,,,120.46383200003766,120.47657530009747,120.97737310011871,120.97737310011871,121.47738220007159,121.46271600015461,121.46276010014117,126.46679239999503,"['b', 'k']",1,BKFU,"['b', 'k']",False,"[1.0187361999414861, 1.461024000076577]","[0.15864749997854233, 0.2321035999339074]",134013,001,2024-11-17_15h21.31.175,PartialReportMethod,2024.1.5,None,2024-11-17 15h21.37.689109 +0530,
18,0,18,0,126.48328130017035,,,,,,,,,126.46942940005101,126.48328130017035,126.96765550016426,126.98404150013812,127.46676390012726,127.45250660018064,127.45254680002108,132.4583717000205,"['l', 'y']",0,LYOD,"['l', 'y']",False,"[1.177822900004685, 1.6443068999797106]","[0.22699390002526343, 0.18526710011065006]",134013,001,2024-11-17_15h21.31.175,PartialReportMethod,2024.1.5,None,2024-11-17 15h21.37.689109 +0530,
19,0,19,0,132.47305919998325,,,,,,,,,132.4612684000749,132.47305919998325,132.97404620004818,132.97404620004818,133.47386030014604,133.45853659999557,133.45856150006875,138.46448289998807,"['e', 'k', 'h']",2,EHWF,"['e', 'k', 'h']",False,"[2.256851200014353, 2.5947448001243174, 2.6126688001677394]","[0.2380677000619471, 0.06887409999035299, 0.21153520001098514]",134013,001,2024-11-17_15h21.31.175,PartialReportMethod,2024.1.5,None,2024-11-17 15h21.37.689109 +0530,
20,0,20,0,138.48038140009157,,,,,,,,,138.46759680006653,138.48038140009157,138.9795438000001,138.9795438000001,139.48145950003527,139.46499940007925,139.4650342001114,144.47015870013274,"['v', 'd']",1,VDWC,"['v', 'd']",False,"[1.0941254999488592, 1.4332723999395967]","[0.24857649998739362, 0.26490699988789856]",134013,001,2024-11-17_15h21.31.175,PartialReportMethod,2024.1.5,None,2024-11-17 15h21.37.689109 +0530,
21,0,21,0,144.48813550011255,,,,,,,,,144.47413370013237,144.48813550011255,144.9705819999799,144.98731790017337,145.47093950002454,145.4567043001298,145.4567343001254,150.4620239001233,"['i', 'c']",0,ICMG,"['i', 'c']",False,"[1.40356729994528, 1.6913663998711854]","[0.19806399988010526, 0.21871399995870888]",134013,001,2024-11-17_15h21.31.175,PartialReportMethod,2024.1.5,None,2024-11-17 15h21.37.689109 +0530,
22,0,22,0,150.4771475000307,,,,,,,,,150.46405950002372,150.4771475000307,150.977111000102,150.977111000102,151.47804479999468,151.46230730018578,151.46234100009315,156.46661310014315,['y'],2,YBFB,['y'],False,[1.1919378000311553],[0.2011351000983268],134013,001,2024-11-17_15h21.31.175,PartialReportMethod,2024.1.5,None,2024-11-17 15h21.37.689109 +0530,
23,0,23,0,156.48542250017636,,,,,,,,,156.47143220016733,156.48542250017636,156.9673343000468,157.00012390012853,157.4673149001319,157.4532329000067,157.4532755999826,162.45953040011227,"['a', 'o']",0,AWBR,"['a', 'o']",False,"[1.97679329989478, 2.483141199918464]","[0.253357500070706, 0.2672751001082361]",134013,001,2024-11-17_15h21.31.175,PartialReportMethod,2024.1.5,None,2024-11-17 15h21.37.689109 +0530,
24,0,24,0,162.47509830002673,,,,,,,,,162.46232940000482,162.47509830002673,162.97381490003318,162.97381490003318,163.4742863001302,163.45909240003675,163.45912170014344,168.46399710001424,"['g', 's']",0,GSHR,"['g', 's']",False,"[1.2359233000315726, 1.7748912000097334]","[0.3136877999641001, 0.23779010004363954]",134013,001,2024-11-17_15h21.31.175,PartialReportMethod,2024.1.5,None,2024-11-17 15h21.37.689109 +0530,
25,0,25,0,168.48033670010045,,,,,,,,,168.4673801001627,168.48033670010045,168.98038540012203,168.98038540012203,169.48126960010268,169.46549670002423,169.46553110005334,174.46987939998507,"['u', 'n']",1,UNVI,"['u', 'n']",False,"[0.5989465999882668, 0.9447890999726951]","[0.17816279991529882, 0.2035358001012355]",134013,001,2024-11-17_15h21.31.175,PartialReportMethod,2024.1.5,None,2024-11-17 15h21.37.689109 +0530,
26,0,26,0,174.48607290000655,,,,,,,,,174.47260770015419,174.48607290000655,174.9702861001715,174.9870073001366,175.47027250006795,175.4558926001191,175.4559361001011,180.4600737001747,"['m', 'a']",2,MAYX,"['m', 'a']",False,"[0.8884022999554873, 1.1196153999771923]","[0.19362240005284548, 0.2534896999131888]",134013,001,2024-11-17_15h21.31.175,PartialReportMethod,2024.1.5,None,2024-11-17 15h21.37.689109 +0530,
27,0,27,0,180.47574110003188,,,,,,,,,180.46273889997974,180.47574110003188,180.97695330018178,180.97695330018178,181.47824430000037,181.46152320015244,181.4615657001268,186.46714389999397,"['z', 'l']",1,ZLJK,"['z', 'l']",False,"[1.3635090000461787, 2.102636800147593]","[0.30910310009494424, 0.23935929988510907]",134013,001,2024-11-17_15h21.31.175,PartialReportMethod,2024.1.5,None,2024-11-17 15h21.37.689109 +0530,
28,0,28,0,186.4839549001772,,,,,,,,,186.47095420002006,186.4839549001772,186.9662766000256,187.0000126999803,187.4669346001465,187.45286540011875,187.4529069000855,192.45847279997543,"['t', 'y']",1,TYIB,"['t', 'y']",False,"[0.7686159999575466, 0.9802417000755668]","[0.28401340008713305, 0.16807629982940853]",134013,001,2024-11-17_15h21.31.175,PartialReportMethod,2024.1.5,None,2024-11-17 15h21.37.689109 +0530,
29,0,29,0,192.4718925000634,,,,,,,,,192.46073250006884,192.4718925000634,192.973582000006,192.973582000006,193.47427760018036,193.457980300067,193.4580059000291,198.46415990008973,"['q', 'd']",0,QDEB,"['q', 'd']",False,"[0.8797869000118226, 1.4231988999526948]","[0.23453609994612634, 0.22139360010623932]",134013,001,2024-11-17_15h21.31.175,PartialReportMethod,2024.1.5,None,2024-11-17 15h21.37.689109 +0530,
30,0,30,0,198.47954400000162,,,,,,,,,198.46658670017496,198.47954400000162,198.98013030015863,198.98013030015863,199.4798282000702,199.46378490002826,199.46382299996912,204.4688605000265,None,1,UFZJ,None,False,,,134013,001,2024-11-17_15h21.31.175,PartialReportMethod,2024.1.5,None,2024-11-17 15h21.37.689109 +0530,
31,0,31,0,204.48601300013252,,,,,,,,,204.47033150005154,204.48601300013252,204.96971810003743,204.98606420005672,205.47033410007134,205.45446260017343,205.45448389998637,210.4592426000163,"['c', 'h']",1,CHHD,"['c', 'h']",False,"[1.1721828000154346, 1.484880399890244]","[0.25082629988901317, 0.19092990015633404]",134013,001,2024-11-17_15h21.31.175,PartialReportMethod,2024.1.5,None,2024-11-17 15h21.37.689109 +0530,
32,0,32,0,210.4758376001846,,,,,,,,,210.46056540007703,210.4758376001846,210.9757342999801,210.9757342999801,211.4769517001696,211.46076480019838,211.46079440019093,216.4671532001812,"['n', 'f']",1,NFFW,"['n', 'f']",False,"[0.5338287998456508, 1.6891251998022199]","[0.1970218000933528, 0.247128700139001]",134013,001,2024-11-17_15h21.31.175,PartialReportMethod,2024.1.5,None,2024-11-17 15h21.37.689109 +0530,
33,0,33,0,216.4830793000292,,,,,,,,,216.47017140011303,216.4830793000292,216.96660320018418,216.98317240015604,217.46700060018338,217.45214050007053,217.45217610010877,222.45761190005578,"['c', 'h']",0,GHLM,"['c', 'h']",False,"[0.862730500055477, 1.1604810999706388]","[0.2664870999287814, 0.19795900001190603]",134013,001,2024-11-17_15h21.31.175,PartialReportMethod,2024.1.5,None,2024-11-17 15h21.37.689109 +0530,
34,0,34,0,222.47528590005822,,,,,,,,,222.46153670013882,222.47528590005822,222.97286390000954,222.98964210017584,223.4729869000148,223.45747810020112,223.45750570017844,228.4636003000196,"['k', 'b']",1,KBTC,"['k', 'b']",False,"[0.7299804999493062, 1.417586199939251]","[0.2178684000391513, 0.1922855000011623]",134013,001,2024-11-17_15h21.31.175,PartialReportMethod,2024.1.5,None,2024-11-17 15h21.37.689109 +0530,
35,0,35,0,228.47916880017146,,,,,,,,,228.46658300003037,228.47916880017146,228.97983460011892,228.97983460011892,229.47995409998111,229.46496580005623,229.46500870003365,234.46970120002516,"['i', 'r', 'd']",2,HRDX,"['i', 'r', 'd']",False,"[1.715576000045985, 2.504327700007707, 3.404801599914208]","[0.2636804999783635, 0.22707700007595122, 0.2698429001029581]",134013,001,2024-11-17_15h21.31.175,PartialReportMethod,2024.1.5,None,2024-11-17 15h21.37.689109 +0530,
36,0,36,0,234.48505180003121,,,,,,,,,234.47251079999842,234.48505180003121,234.9697216001805,234.98630630015396,235.47030520020053,235.45562760019675,235.45565830008127,240.45893330010585,"['a', 'l', 'a']",0,LALD,"['a', 'l', 'a']",False,"[2.898427499923855, 3.9483861001208425, 4.528849200112745]","[0.3213923000730574, 0.34553910000249743, 0.2303659999743104]",134013,001,2024-11-17_15h21.31.175,PartialReportMethod,2024.1.5,None,2024-11-17 15h21.37.689109 +0530,
37,0,37,0,240.4749328000471,,,,,,,,,240.46040410012938,240.4749328000471,240.97621570015326,240.97621570015326,241.4761253001634,241.4626534001436,241.46268660016358,246.4667358000297,None,2,QEJR,None,False,,,134013,001,2024-11-17_15h21.31.175,PartialReportMethod,2024.1.5,None,2024-11-17 15h21.37.689109 +0530,
38,0,38,0,246.48270430020057,,,,,,,,,246.46836800011806,246.48270430020057,246.9664422001224,246.98344710003585,247.4668590000365,247.4524038999807,247.4524417000357,252.45705409999937,"['p', 'b']",2,BMBW,"['p', 'b']",False,"[1.1871838001534343, 1.6126043000258505]","[0.29467289987951517, 0.1617852000053972]",134013,001,2024-11-17_15h21.31.175,PartialReportMethod,2024.1.5,None,2024-11-17 15h21.37.689109 +0530,
39,0,39,0,252.47172070015222,,,,,,,,,252.4594912000466,252.47172070015222,252.972597300075,252.972597300075,253.47299670008942,253.45755010005087,253.4575853999704,258.463346300181,"['t', 'b']",2,TBYC,"['t', 'b']",False,"[0.5335343000479043, 0.8645661000628024]","[0.25706940004602075, 0.2143208000343293]",134013,001,2024-11-17_15h21.31.175,PartialReportMethod,2024.1.5,None,2024-11-17 15h21.37.689109 +0530,
40,0,40,0,258.47854840010405,,,,,,,,,258.46580120013095,258.47854840010405,258.9791492000222,258.9791492000222,259.4802015000023,259.46472900011577,259.46476140012965,264.4688709001057,"['u', 'd']",0,ULLW,"['u', 'd']",False,"[0.6063411999493837, 0.7998375999741256]","[0.16525559988804162, 0.2135240000206977]",134013,001,2024-11-17_15h21.31.175,PartialReportMethod,2024.1.5,None,2024-11-17 15h21.37.689109 +0530,
41,0,41,0,264.4853168001864,,,,,,,,,264.47176250000484,264.4853168001864,264.9695731999818,264.98604890005663,265.47009040019475,265.45566670014523,265.45570340007544,270.46004270017147,"['h', 'h']",2,HILA,"['h', 'h']",False,"[0.770227300003171, 0.992854000069201]","[0.15773930004797876, 0.16618759999983013]",134013,001,2024-11-17_15h21.31.175,PartialReportMethod,2024.1.5,None,2024-11-17 15h21.37.689109 +0530,
42,0,42,0,270.47575990017503,,,,,,,,,270.4622071001213,270.47575990017503,270.97616480011493,270.97616480011493,271.476162499981,271.4607389001176,271.4607760000508,276.465203900123,"['k', 's']",0,PSCE,"['k', 's']",False,"[0.9448949000798166, 1.3145045000128448]","[0.20432549994438887, 0.24459360004402697]",134013,001,2024-11-17_15h21.31.175,PartialReportMethod,2024.1.5,None,2024-11-17 15h21.37.689109 +0530,
43,0,43,0,276.48146290006116,,,,,,,,,276.46682159998454,276.48146290006116,276.9659610001836,276.98307529999875,277.46633190009743,277.45234970003366,277.4523981001694,282.45826840004884,"['n', 'z']",0,NZTO,"['n', 'z']",False,"[0.7432519001886249, 1.4752841000445187]","[0.18721309979446232, 0.27672030008397996]",134013,001,2024-11-17_15h21.31.175,PartialReportMethod,2024.1.5,None,2024-11-17 15h21.37.689109 +0530,
44,0,44,0,282.4740656001959,,,,,,,,,282.4614972001873,282.4740656001959,282.9722718000412,282.9896704000421,283.472364500165,283.4595888000913,283.45962440012954,288.4623466001358,"['v', 'y']",0,VYAX,"['v', 'y']",False,"[1.6574558999855071, 2.04041920020245]","[0.26072730007581413, 0.21165049984119833]",134013,001,2024-11-17_15h21.31.175,PartialReportMethod,2024.1.5,None,2024-11-17 15h21.37.689109 +0530,
45,0,45,0,288.47780870017596,,,,,,,,,288.4643698001746,288.47780870017596,288.97923370008357,288.97923370008357,289.4796240001451,289.4640754000284,289.46410159999505,294.4697344000451,"['j', 'x']",1,JXRS,"['j', 'x']",False,"[0.7181120000313967, 1.5130983002018183]","[0.20631280005909503, 0.3363068997859955]",134013,001,2024-11-17_15h21.31.175,PartialReportMethod,2024.1.5,None,2024-11-17 15h21.37.689109 +0530,
46,0,46,0,294.4852089001797,,,,,,,,,294.471689700149,294.4852089001797,294.9692923000548,294.98643640009686,295.46948780003004,295.4545568001922,295.4545992000494,300.45964740007184,"['k', 'j']",1,DSIN,"['k', 'j']",False,"[0.9406889001838863, 1.4517342001199722]","[0.19721139990724623, 0.175277000060305]",134013,001,2024-11-17_15h21.31.175,PartialReportMethod,2024.1.5,None,2024-11-17 15h21.37.689109 +0530,
47,0,47,0,300.47446490009315,,,,,,,,,300.46156920003705,300.47446490009315,300.97624830016866,300.97624830016866,301.47618290013634,301.4606938001234,301.4607244001236,306.4665369000286,"['f', 'w']",2,FWFG,"['f', 'w']",False,"[2.1402584000024945, 2.6393353999592364]","[0.3095170999877155, 0.31252839998342097]",134013,001,2024-11-17_15h21.31.175,PartialReportMethod,2024.1.5,None,2024-11-17 15h21.37.689109 +0530,
48,0,48,0,306.4823629001621,,,,,,,,,306.4687987000216,306.4823629001621,306.9658041000366,306.98254800005816,307.4662070001941,307.45214660000056,307.4521886999719,312.4567599000875,"['r', 'x', 'z']",2,RZCT,"['r', 'x', 'z']",False,"[0.7423119999002665, 1.3246683001052588, 1.9026524999644607]","[0.20528570003807545, 0.25017799995839596, 0.25631990004330873]",134013,001,2024-11-17_15h21.31.175,PartialReportMethod,2024.1.5,None,2024-11-17 15h21.37.689109 +0530,
49,0,49,0,312.47167280013673,,,,,,,,,312.45904120011255,312.47167280013673,312.97191750002094,312.97191750002094,313.47253170004115,313.4573580001015,313.45738969999366,318.4640528000891,"['w', 'i', 'k']",1,VIBA,"['w', 'i', 'k']",False,"[1.9858097999822348, 2.3376559999305755, 3.1916088999714702]","[0.2676516999490559, 0.2146360999904573, 0.19019229989498854]",134013,001,2024-11-17_15h21.31.175,PartialReportMethod,2024.1.5,None,2024-11-17 15h21.37.689109 +0530,
50,0,50,0,318.4782668000553,,,,,,,,,318.4658384001814,318.4782668000553,318.9789121001959,318.9789121001959,319.4797907001339,319.46487180003896,319.46491710003465,324.4690890000202,"['d', 'u']",2,DRNG,"['d', 'u']",False,"[1.0328577000182122, 1.3487913999706507]","[0.23646869999356568, 0.16131210001185536]",134013,001,2024-11-17_15h21.31.175,PartialReportMethod,2024.1.5,None,2024-11-17 15h21.37.689109 +0530,
51,0,51,0,324.4865721000824,,,,,,,,,324.4716180001851,324.4865721000824,324.96925590001047,324.9859892001841,325.46888110018335,325.45609480002895,325.45614030002616,330.45987560017966,"['v', 'y']",2,VDWA,"['v', 'y']",False,"[1.640990500105545, 1.9761704001575708]","[0.2609963999129832, 0.20093709998764098]",134013,001,2024-11-17_15h21.31.175,PartialReportMethod,2024.1.5,None,2024-11-17 15h21.37.689109 +0530,
52,0,52,0,330.4746917001903,,,,,,,,,330.4624555001501,330.4746917001903,330.97601960017346,330.97601960017346,331.4753531999886,331.4603370002005,331.4603671000805,336.46650500013493,"['x', 'u']",2,XUZB,"['x', 'u']",False,"[1.1497053001075983, 1.553582499967888]","[0.2853196000214666, 0.18111110012978315]",134013,001,2024-11-17_15h21.31.175,PartialReportMethod,2024.1.5,None,2024-11-17 15h21.37.689109 +0530,
53,0,53,0,336.48228360014036,,,,,,,,,336.46910510002635,336.48228360014036,336.96581730013713,336.98281450010836,337.4658774000127,337.45240609999746,337.4524491999764,342.4575340000447,"['n', 't']",0,HTVJ,"['n', 't']",False,"[0.6700277999043465, 1.0120649999007583]","[0.19949749996885657, 0.23481910000555217]",134013,001,2024-11-17_15h21.31.175,PartialReportMethod,2024.1.5,None,2024-11-17 15h21.37.689109 +0530,
54,0,54,0,342.4746219001245,,,,,,,,,342.4602500000037,342.4746219001245,342.97290300019085,342.9901428001467,343.47242670017295,343.4574910001829,343.457517700037,348.46298910002224,"['n', 'a']",0,NAIU,"['n', 'a']",False,"[0.6300987999420613, 0.798804699908942]","[0.19857270014472306, 0.22873210022225976]",134013,001,2024-11-17_15h21.31.175,PartialReportMethod,2024.1.5,None,2024-11-17 15h21.37.689109 +0530,
55,0,55,0,348.4781019000802,,,,,,,,,348.46522920019925,348.4781019000802,348.97883120016195,348.97883120016195,349.4791221001651,349.46339110005647,349.4634110000916,354.4686334000435,['d'],0,FETP,['d'],False,[2.6473089999053627],[0.2896891999989748],134013,001,2024-11-17_15h21.31.175,PartialReportMethod,2024.1.5,None,2024-11-17 15h21.37.689109 +0530,
56,0,56,0,354.4852097001858,,,,,,,,,354.47232670011,354.4852097001858,354.9680068001617,354.9852994000539,355.4694010000676,355.4551319000311,355.45517970016226,360.460394800175,"['p', 'w']",2,EROK,"['p', 'w']",False,"[1.252206499921158, 2.284228399861604]","[0.2351702000014484, 0.25084679992869496]",134013,001,2024-11-17_15h21.31.175,PartialReportMethod,2024.1.5,None,2024-11-17 15h21.37.689109 +0530,
57,0,57,0,360.4747636001557,,,,,,,,,360.4630845000502,360.4747636001557,360.97546330001205,360.97546330001205,361.4760616000276,361.4597081001848,361.4597424999811,366.4648194001056,"['l', 'n']",1,LNLS,"['l', 'n']",False,"[1.0686888999771327, 1.4685059001203626]","[0.22139169997535646, 0.23060779995284975]",134013,001,2024-11-17_15h21.31.175,PartialReportMethod,2024.1.5,None,2024-11-17 15h21.37.689109 +0530,
58,0,58,0,366.4809078001417,,,,,,,,,366.466912999982,366.4809078001417,366.98143810010515,366.98143810010515,367.4818736000452,367.4665147000924,367.466539000161,372.4709483999759,"['d', 'd']",2,DDLZ,"['d', 'd']",False,"[0.5363193999510258, 0.7602861998602748]","[0.1609249000903219, 0.1577896000817418]",134013,001,2024-11-17_15h21.31.175,PartialReportMethod,2024.1.5,None,2024-11-17 15h21.37.689109 +0530,
59,0,59,0,372.4871784001589,,,,,,,,,372.47286000009626,372.4871784001589,372.97231950005516,372.9892906001769,373.47204220015556,373.4577348001767,373.45776080014184,378.46141320001334,"['a', 'i']",0,AKWH,"['a', 'i']",False,"[0.7779331000056118, 1.2615954999346286]","[0.21395000000484288, 0.20915340003557503]",134013,001,2024-11-17_15h21.31.175,PartialReportMethod,2024.1.5,None,2024-11-17 15h21.37.689109 +0530,
60,0,60,0,378.4774564001709,,,,,,,,,378.4641083001625,378.4774564001709,378.9786971001886,378.9786971001886,379.4790142001584,379.4628481999971,379.4628757000901,384.46814010012895,"['t', 'h']",0,THYC,"['t', 'h']",False,"[0.7854132000356913, 0.9963519000448287]","[0.24356619990430772, 0.15967489988543093]",134013,001,2024-11-17_15h21.31.175,PartialReportMethod,2024.1.5,None,2024-11-17 15h21.37.689109 +0530,
61,0,61,0,384.485240300186,,,,,,,,,384.4710301000159,384.485240300186,384.9685754000675,384.9853813999798,385.46885880012996,385.4540660001803,385.45411090017296,390.4587526000105,"['d', 'a']",0,DQWT,"['d', 'a']",False,"[1.2976033999584615, 2.056736099999398]","[0.22333639999851584, 0.2639067000709474]",134013,001,2024-11-17_15h21.31.175,PartialReportMethod,2024.1.5,None,2024-11-17 15h21.37.689109 +0530,
62,0,62,0,390.4737083001528,,,,,,,,,390.4610025000293,390.4737083001528,390.97475569997914,390.97475569997914,391.47569750016555,391.4596472000703,391.4596760000568,396.4652754999697,"['w', 'a']",2,UENA,"['w', 'a']",False,"[0.9633882001508027, 1.4036263001617044]","[0.2359658998902887, 0.24287149985320866]",134013,001,2024-11-17_15h21.31.175,PartialReportMethod,2024.1.5,None,2024-11-17 15h21.37.689109 +0530,
63,0,63,0,396.48163190018386,,,,,,,,,396.4682246001903,396.48163190018386,396.9815961001441,396.9815961001441,397.48219590005465,397.46654579997994,397.4665817001369,402.4710425999947,"['u', 'a', 'd']",0,UUAB,"['u', 'a', 'd']",False,"[1.4196123001165688, 1.7562387001235038, 4.408885200042278]","[0.23522619996219873, 0.24462049989961088, 0.1914290999993682]",134013,001,2024-11-17_15h21.31.175,PartialReportMethod,2024.1.5,None,2024-11-17 15h21.37.689109 +0530,
64,0,64,0,402.4874076000415,,,,,,,,,402.47371609997936,402.4874076000415,402.9715647001285,402.9880747999996,403.4718969000969,403.455324199982,403.45534640015103,408.4616710001137,"['c', 'u']",2,CUEU,"['c', 'u']",False,"[1.251694600097835, 1.569199499906972]","[0.24123679986223578, 0.21480940002948046]",134013,001,2024-11-17_15h21.31.175,PartialReportMethod,2024.1.5,None,2024-11-17 15h21.37.689109 +0530,
65,0,65,0,408.47682260000147,,,,,,,,,408.4636878001038,408.47682260000147,408.9783364001196,408.9783364001196,409.47845340007916,409.46314610005356,409.46318080020137,414.46779750008136,"['j', 'h']",0,JHJF,"['j', 'h']",False,"[1.2895911000669003, 2.330905299866572]","[0.19693299988284707, 0.16033690003678203]",134013,001,2024-11-17_15h21.31.175,PartialReportMethod,2024.1.5,None,2024-11-17 15h21.37.689109 +0530,
66,0,66,0,414.4851914001629,,,,,,,,,414.47100030002184,414.4851914001629,414.96892720018514,414.984286100138,415.4685188001022,415.4541447001975,415.45417629997246,420.4583076001145,"['m', 'r']",0,MRWZ,"['m', 'r']",False,"[0.6112213002052158, 1.3917551999911666]","[0.20633519999682903, 0.2687533001881093]",134013,001,2024-11-17_15h21.31.175,PartialReportMethod,2024.1.5,None,2024-11-17 15h21.37.689109 +0530,
67,0,67,0,420.4733879000414,,,,,,,,,420.46083030011505,420.4733879000414,420.9748829000164,420.9748829000164,421.47501310007647,421.45945640001446,421.4594833999872,426.4651778000407,"['d', 'j', 'p', 'f']",2,DFZG,"['d', 'j', 'p', 'f']",False,"[1.2656361998524517, 1.4214381999336183, 1.6571786999702454, 2.162912799976766]","[0.22203340008854866, 0.12450699997134507, 0.2217411999590695, 0.22209789999760687]",134013,001,2024-11-17_15h21.31.175,PartialReportMethod,2024.1.5,None,2024-11-17 15h21.37.689109 +0530,
68,0,68,0,426.4821474000346,,,,,,,,,426.468431300018,426.4821474000346,426.98144480003975,426.98144480003975,427.4815795000177,427.4664319001604,427.4664682999719,432.4720879001543,"['c', 'p']",0,CLPY,"['c', 'p']",False,"[1.2266935999505222, 1.6664656999055296]","[0.23927220003679395, 0.2716896999627352]",134013,001,2024-11-17_15h21.31.175,PartialReportMethod,2024.1.5,None,2024-11-17 15h21.37.689109 +0530,
69,0,69,0,432.49241180019453,,,,,,,,,432.4772298000753,432.49241180019453,432.9720307001844,433.0050860000774,433.4719057001639,433.4567566001788,433.4567831000313,438.4619709001854,"['c', 'n']",2,CNXS,"['c', 'n']",False,"[1.0556341998744756, 1.3472439998295158]","[0.26991030015051365, 0.2080908000934869]",134013,001,2024-11-17_15h21.31.175,PartialReportMethod,2024.1.5,None,2024-11-17 15h21.37.689109 +0530,
70,0,70,0,438.4790750001557,,,,,,,,,438.4648769001942,438.4790750001557,438.97828679997474,438.97828679997474,439.4788479001727,439.46312230010517,439.4631505999714,444.4672491000965,"['q', 'm']",0,QMVR,"['q', 'm']",False,"[1.3370858000125736, 1.810807399917394]","[0.2523990001063794, 0.21485730004496872]",134013,001,2024-11-17_15h21.31.175,PartialReportMethod,2024.1.5,None,2024-11-17 15h21.37.689109 +0530,
71,0,71,0,444.4845645001624,,,,,,,,,444.46983320009895,444.4845645001624,444.96729220007546,444.98370590014383,445.46822230005637,445.45408629998565,445.4541279000696,450.4588105001021,"['n', 'h']",0,NHDX,"['n', 'h']",False,"[0.7935099999886006, 1.1405310002155602]","[0.18447080021724105, 0.19685819977894425]",134013,001,2024-11-17_15h21.31.175,PartialReportMethod,2024.1.5,None,2024-11-17 15h21.37.689109 +0530,
72,0,72,0,450.4743817001581,,,,,,,,,450.46118710003793,450.4743817001581,450.9748834001366,450.9748834001366,451.47398710018024,451.4592263000086,451.45924480003305,456.46466429997236,"['p', 'j']",0,PJHK,"['p', 'j']",False,"[1.2277567000128329, 1.6699218000285327]","[0.26522850012406707, 0.18401650013402104]",134013,001,2024-11-17_15h21.31.175,PartialReportMethod,2024.1.5,None,2024-11-17 15h21.37.689109 +0530,
73,0,73,0,456.47989320009947,,,,,,,,,456.466988600092,456.47989320009947,456.98166860011406,456.98166860011406,457.481243400136,457.46571430005133,457.465745100053,462.47064790013246,"['l', 'l', 'h']",2,LHIY,"['l', 'l', 'h']",False,"[0.6361151998862624, 1.118167799897492, 1.369660599855706]","[0.28376350016333163, 0.13440470001660287, 0.24216480017639697]",134013,001,2024-11-17_15h21.31.175,PartialReportMethod,2024.1.5,None,2024-11-17 15h21.37.689109 +0530,
74,0,74,0,462.48663280019537,,,,,,,,,462.4732817001641,462.48663280019537,462.9714141001459,462.9876725000795,463.47084870003164,463.4569747999776,463.4570118000265,468.46041449997574,"['a', 'd']",0,ADYM,"['a', 'd']",False,"[0.6241214000619948, 0.9271828001365066]","[0.23588809999637306, 0.29271389986388385]",134013,001,2024-11-17_15h21.31.175,PartialReportMethod,2024.1.5,None,2024-11-17 15h21.37.689109 +0530,
75,0,75,0,468.47607600013725,,,,,,,,,468.4622712000273,468.47607600013725,468.9776135000866,468.9776135000866,469.4778267000802,469.4621926001273,469.46221929998137,474.46762910019606,"['v', 'a']",1,VAQU,"['v', 'a']",False,"[0.9012865000404418, 1.3125009001232684]","[0.3458585001062602, 0.28544409992173314]",134013,001,2024-11-17_15h21.31.175,PartialReportMethod,2024.1.5,None,2024-11-17 15h21.37.689109 +0530,
76,0,76,0,474.48398140002973,,,,,,,,,474.4705247001257,474.48398140002973,474.9677972001955,474.98439560015686,475.4679735000245,475.45324439997785,475.4532828000374,480.4579107000027,"['g', 'i']",1,GITR,"['g', 'i']",False,"[0.6843147999607027, 1.0475826000329107]","[0.24349160003475845, 0.2649863997939974]",134013,001,2024-11-17_15h21.31.175,PartialReportMethod,2024.1.5,None,2024-11-17 15h21.37.689109 +0530,
77,0,77,0,480.4731165000703,,,,,,,,,480.4603089999873,480.4731165000703,480.97410920006223,480.97410920006223,481.47479290002957,481.4589544001501,481.45898370002396,486.46391950012185,"['o', 'g']",1,OGIR,"['o', 'g']",False,"[0.6579557000659406, 1.2898345000576228]","[0.2732710000127554, 0.2438427999150008]",134013,001,2024-11-17_15h21.31.175,PartialReportMethod,2024.1.5,None,2024-11-17 15h21.37.689109 +0530,
78,0,78,0,486.47998720011674,,,,,,,,,486.46510660019703,486.47998720011674,486.98074190015905,486.98074190015905,487.48433970008045,487.4663529000245,487.4663845000323,492.47004020004533,"['o', 'g']",0,QDPC,"['o', 'g']",False,"[2.4931703999172896, 3.107065499993041]","[0.3351185000501573, 0.2532975000794977]",134013,001,2024-11-17_15h21.31.175,PartialReportMethod,2024.1.5,None,2024-11-17 15h21.37.689109 +0530,
79,0,79,0,492.4867120999843,,,,,,,,,492.47291850019246,492.4867120999843,492.9704411001876,492.98723530001007,493.47093640011735,493.45648990012705,493.4565279001836,498.46174510009587,"['g', 'f', 's']",0,FSMH,"['g', 'f', 's']",False,"[0.6565473999362439, 1.3948669000528753, 1.7963717998936772]","[0.10454159998334944, 0.23006799980066717, 0.2594906999729574]",134013,001,2024-11-17_15h21.31.175,PartialReportMethod,2024.1.5,None,2024-11-17 15h21.37.689109 +0530,
80,0,80,0,498.47617550008,,,,,,,,,498.4642933001742,498.47617550008,498.97724050004035,498.97724050004035,499.4776666001417,499.46197540010326,499.4620068001095,504.46707410016097,"['j', 'm']",2,AMLR,"['j', 'm']",False,"[1.1851850000675768, 1.5822127999272197]","[0.20749329985119402, 0.20532379997894168]",134013,001,2024-11-17_15h21.31.175,PartialReportMethod,2024.1.5,None,2024-11-17 15h21.37.689109 +0530,
81,0,81,0,504.4849202001933,,,,,,,,,504.4696375001222,504.4849202001933,504.96723710000515,505.00070460001007,505.46756420005113,505.45335620013066,505.45339890010655,510.4573842000682,"['f', 'l']",0,FLML,"['f', 'l']",False,"[0.932075799908489, 1.2179447999224067]","[0.25284900004044175, 0.24802580010145903]",134013,001,2024-11-17_15h21.31.175,PartialReportMethod,2024.1.5,None,2024-11-17 15h21.37.689109 +0530,
82,0,82,0,510.47262610006146,,,,,,,,,510.45925429998897,510.47262610006146,510.9738333001733,510.9738333001733,511.4740083999932,511.4581431001425,511.4581675999798,516.4649345001671,"['w', 'o', 'z']",1,IWKQ,"['w', 'o', 'z']",False,"[0.5897409999743104, 1.8694801998790354, 2.878555400064215]","[0.2701057998929173, 0.29587050015106797, 0.2645462998189032]",134013,001,2024-11-17_15h21.31.175,PartialReportMethod,2024.1.5,None,2024-11-17 15h21.37.689109 +0530,
83,0,83,0,516.4800212001428,,,,,,,,,516.4674834001344,516.4800212001428,516.9805344999768,516.9805344999768,517.481074300129,517.4651618001517,517.4651901000179,522.4702791001182,"['b', 'x']",2,BXGE,"['b', 'x']",False,"[0.7224846999160945, 1.2903239999432117]","[0.17099249991588295, 0.23756749997846782]",134013,001,2024-11-17_15h21.31.175,PartialReportMethod,2024.1.5,None,2024-11-17 15h21.37.689109 +0530,
84,0,84,0,522.4877488000784,,,,,,,,,522.4730952000245,522.4877488000784,522.9704192001373,522.9871561001055,523.4707886001561,523.4562068001833,523.456243700115,528.4613142001908,"['q', 'z']",0,QZDW,"['q', 'z']",False,"[1.6156385999638587, 2.54527679993771]","[0.2325752000324428, 0.24292370001785457]",134013,001,2024-11-17_15h21.31.175,PartialReportMethod,2024.1.5,None,2024-11-17 15h21.37.689109 +0530,
85,0,85,0,528.4756800001487,,,,,,,,,528.4633671001066,528.4756800001487,528.9773525001947,528.9773525001947,529.4774564001709,529.461940200068,529.4619690000545,534.4671808001585,"['r', 'j']",0,RJKZ,"['r', 'j']",False,"[0.8887547000776976, 1.092974100029096]","[0.22422019997611642, 0.20437519997358322]",134013,001,2024-11-17_15h21.31.175,PartialReportMethod,2024.1.5,None,2024-11-17 15h21.37.689109 +0530,
86,0,86,0,534.4842016000766,,,,,,,,,534.4698144001886,534.4842016000766,534.9669189001434,534.9835747000761,535.467388600111,535.4527171000373,535.4527601001319,540.4569771999959,"['t', 'y']",1,TYRJ,"['t', 'y']",False,"[0.5743384999223053, 1.1535680999513716]","[0.26576000009663403, 0.2180405999533832]",134013,001,2024-11-17_15h21.31.175,PartialReportMethod,2024.1.5,None,2024-11-17 15h21.37.689109 +0530,
87,0,87,0,540.4721159001347,,,,,,,,,540.4583603001665,540.4721159001347,540.9735803001095,540.9735803001095,541.4740412000101,541.4580828000326,541.4581120000221,546.4637747001834,"['n', 'q']",0,NQGM,"['n', 'q']",False,"[0.7678553001023829, 1.4434774001128972]","[0.20062320004217327, 0.28054920001886785]",134013,001,2024-11-17_15h21.31.175,PartialReportMethod,2024.1.5,None,2024-11-17 15h21.37.689109 +0530,
88,0,88,0,546.4795562999789,,,,,,,,,546.4659566001501,546.4795562999789,546.9804459000006,546.9804459000006,547.4807128000539,547.4649506001733,547.4649798001628,552.4698360001203,"['i', 'y']",2,IYCE,"['i', 'y']",False,"[1.0592288000043482, 1.4494992000982165]","[0.2862625999841839, 0.1623323999810964]",134013,001,2024-11-17_15h21.31.175,PartialReportMethod,2024.1.5,None,2024-11-17 15h21.37.689109 +0530,
89,0,89,0,552.48622229998,,,,,,,,,552.4725345000625,552.48622229998,552.9699219001923,552.986601000186,553.4703657000791,553.4560995001812,553.4561321001966,558.4597910000011,"['y', 'a']",1,YASC,"['y', 'a']",False,"[0.8670302999671549, 1.1192165000829846]","[0.20004449994303286, 0.23674439988099039]",134013,001,2024-11-17_15h21.31.175,PartialReportMethod,2024.1.5,None,2024-11-17 15h21.37.689109 +0530,
90,0,90,0,558.4764426001348,,,,,,,,,558.4617217001505,558.4764426001348,558.9768346000928,558.9768346000928,559.4773189001717,559.4622033999767,559.4622301000636,564.4666755001526,['t'],2,CTPT,['t'],False,[2.2399820000864565],[0.27156180003657937],134013,001,2024-11-17_15h21.31.175,PartialReportMethod,2024.1.5,None,2024-11-17 15h21.37.689109 +0530,
91,0,91,0,564.4826605000999,,,,,,,,,564.4693428999744,564.4826605000999,564.9666770000476,564.9831570000388,565.4676403000485,565.4524289001711,565.4524622000754,570.4589416000526,"['h', 'n']",1,HNOU,"['h', 'n']",False,"[0.8954371998552233, 1.3545840999577194]","[0.16901520011015236, 0.16836449992842972]",134013,001,2024-11-17_15h21.31.175,PartialReportMethod,2024.1.5,None,2024-11-17 15h21.37.689109 +0530,
92,0,92,0,570.4748488999903,,,,,,,,,570.4619194001425,570.4748488999903,570.9731863001361,570.9731863001361,571.4750203001313,571.458227599971,571.4582615001127,576.4634144001175,"['f', 'b']",1,FBUG,"['f', 'b']",False,"[1.5634762002155185, 1.9193144000601023]","[0.25359529978595674, 0.18924159999005497]",134013,001,2024-11-17_15h21.31.175,PartialReportMethod,2024.1.5,None,2024-11-17 15h21.37.689109 +0530,
93,0,93,0,576.4791298999917,,,,,,,,,576.4656637001317,576.4791298999917,576.9798159999773,576.9798159999773,577.4806093000807,577.465454300167,577.4654918001033,582.4710194000509,"['g', 'n']",1,GNNJ,"['g', 'n']",False,"[0.9387105999048799, 1.1243419998791069]","[0.2252605000976473, 0.15438660001382232]",134013,001,2024-11-17_15h21.31.175,PartialReportMethod,2024.1.5,None,2024-11-17 15h21.37.689109 +0530,
94,0,94,0,582.4858602001332,,,,,,,,,582.4731870000251,582.4858602001332,582.9698728001676,582.9868888000492,583.4716555001214,583.4550515001174,583.455081900116,588.4603411999997,"['y', 'n']",2,QVKA,"['y', 'n']",False,"[1.7066742999013513, 2.0964686998631805]","[0.17468090006150305, 0.1824684999883175]",134013,001,2024-11-17_15h21.31.175,PartialReportMethod,2024.1.5,None,2024-11-17 15h21.37.689109 +0530,
95,0,95,0,588.4790223001037,,,,,,,,,588.4633790000807,588.4790223001037,588.9768080001231,588.9933888001833,589.4764041001908,589.4624532000162,589.462487900164,594.4667342000175,"['j', 'r']",0,JRMW,"['j', 'r']",False,"[0.9728570999577641, 1.338632500031963]","[0.22400530008599162, 0.25353140011429787]",134013,001,2024-11-17_15h21.31.175,PartialReportMethod,2024.1.5,None,2024-11-17 15h21.37.689109 +0530,
96,0,96,0,594.4827662999742,,,,,,,,,594.4688026001677,594.4827662999742,594.96614090004,594.983198700007,595.4666660001967,595.4522391001228,595.4522808999754,600.4566828000825,"['p', 'p']",0,PRYO,"['p', 'p']",False,"[0.6722070998512208, 0.9613965998869389]","[0.22141600004397333, 0.17174370004795492]",134013,001,2024-11-17_15h21.31.175,PartialReportMethod,2024.1.5,None,2024-11-17 15h21.37.689109 +0530,
97,0,97,0,600.4756337001454,,,,,,,,,600.4594235999975,600.4756337001454,600.9729853000026,600.9897266000044,601.4735169000924,601.4579851999879,601.4580189001281,606.4631651001982,"['e', 'k']",1,EKWI,"['e', 'k']",False,"[0.9761629998683929, 1.2307886998169124]","[0.2467604000121355, 0.17703820019960403]",134013,001,2024-11-17_15h21.31.175,PartialReportMethod,2024.1.5,None,2024-11-17 15h21.37.689109 +0530,
98,0,98,0,606.4802393000573,,,,,,,,,606.4655146000441,606.4802393000573,606.9789995001629,606.9789995001629,607.4801709000021,607.4648125001695,607.4648546001408,612.4700960000046,"['m', 'q']",2,MQDS,"['m', 'q']",False,"[0.8121018998790532, 1.4817985999397933]","[0.19072320009581745, 0.3073597000911832]",134013,001,2024-11-17_15h21.31.175,PartialReportMethod,2024.1.5,None,2024-11-17 15h21.37.689109 +0530,
99,0,99,0,612.4876894999761,,,,,,,,,612.4730042000301,612.4876894999761,612.9697307001334,613.0029623000883,613.4711039999966,613.4549454001244,613.4549797000363,618.4595978001598,"['v', 'a']",0,VSJB,"['v', 'a']",False,"[0.8074437999166548, 1.1073209000751376]","[0.2546501001343131, 0.26012200000695884]",134013,001,2024-11-17_15h21.31.175,PartialReportMethod,2024.1.5,None,2024-11-17 15h21.37.689109 +0530,
