trials.thisRepN,trials.thisTrialN,trials.thisN,trials.thisIndex,thisRow.t,notes,introduction.started,text.started,key_resp_2.started,introduction.stopped,key_resp_2.keys,key_resp_2.rt,key_resp_2.duration,trial.started,letter_grid.started,row_cue.started,letter_grid.stopped,row_cue.stopped,trial.stopped,response_routine.started,response_routine.stopped,response.keys,response.rt,response.duration,Cued Row,Correct Row,Participant Response,Is Correct,participant,session,date,expName,psychopyVersion,frameRate,expStart,
,,,,,,0.002715999959036708,0.021795099833980203,0.021795099833980203,15.820155199849978,space,15.778997499961406,None,,,,,,,,,,,,,,,,529125,001,2024-11-17_10h42.38.955,PartialReportMethod,2024.1.5,None,2024-11-17 10h42.50.537718 +0530,
0,0,0,0,15.97689659986645,,,,,,,,,15.822501599788666,15.97689659986645,16.320432299980894,16.489784399978817,17.32479829993099,17.30778929986991,17.307822299888358,22.3128833998926,"['d', 'f']","[1.9168896998744458, 2.1403677999041975]","[0.06662190007045865, 0.10768520017154515]",2,HCRU,"['d', 'f']",False,529125,001,2024-11-17_10h42.38.955,PartialReportMethod,2024.1.5,None,2024-11-17 10h42.50.537718 +0530,
1,0,1,0,22.339066399959847,,,,,,,,,22.316721400013193,22.339066399959847,22.828100599814206,22.844715299783275,23.83055129996501,23.81762279989198,23.817653799895197,28.81947599980049,['s'],[1.2783313000109047],[0.09527439996600151],1,RTBR,['s'],False,529125,001,2024-11-17_10h42.38.955,PartialReportMethod,2024.1.5,None,2024-11-17 10h42.50.537718 +0530,
2,0,2,0,28.840473199961707,,,,,,,,,28.821390299824998,28.840473199961707,29.318662399891764,29.354041599901393,30.32071979995817,30.304004499921575,30.30403169989586,35.311133299954236,"['y', 'r']","[1.3959743999876082, 1.5730916999746114]","[0.10487899999134243, 0.06843640003353357]",0,YRXF,"['y', 'r']",False,529125,001,2024-11-17_10h42.38.955,PartialReportMethod,2024.1.5,None,2024-11-17 10h42.50.537718 +0530,
3,0,3,0,35.32820489979349,,,,,,,,,35.312397099798545,35.32820489979349,35.825623399810866,35.84254079987295,36.827876299852505,36.81040959991515,36.8104350999929,41.81937879999168,"['a', 's']","[1.2436403001192957, 1.461490800138563]","[0.09866350004449487, 0.09997990005649626]",2,ASCJ,"['a', 's']",False,529125,001,2024-11-17_10h42.38.955,PartialReportMethod,2024.1.5,None,2024-11-17 10h42.50.537718 +0530,
4,0,4,0,41.83813159982674,,,,,,,,,41.82108899997547,41.83813159982674,42.33377769985236,42.35088069993071,43.33563639991917,43.31900139991194,43.319024899974465,48.32224789983593,"['e', 'e', 'a', 'a']","[1.5076764998957515, 1.6847194998990744, 1.9275380000472069, 2.1085498998872936]","[0.09604780003428459, 0.07871160004287958, 0.09494269988499582, 0.12668159999884665]",2,EEAA,"['e', 'e', 'a', 'a']",False,529125,001,2024-11-17_10h42.38.955,PartialReportMethod,2024.1.5,None,2024-11-17 10h42.50.537718 +0530,
5,0,5,0,48.345910399919376,,,,,,,,,48.32399159995839,48.345910399919376,48.82311349990778,48.85737149999477,49.82630049996078,49.80742949992418,49.80744289979339,54.813719999976456,['e'],[1.4659090000204742],[0.09558879979886115],2,WIJN,['e'],False,529125,001,2024-11-17_10h42.38.955,PartialReportMethod,2024.1.5,None,2024-11-17 10h42.50.537718 +0530,
6,0,6,0,54.83021039981395,,,,,,,,,54.81510869995691,54.83021039981395,55.32926349993795,55.32926349993795,56.33335899980739,56.31588349980302,56.315907599870116,61.32189709995873,['z'],[1.9007580999750644],[0.09591130004264414],2,MBFT,['z'],False,529125,001,2024-11-17_10h42.38.955,PartialReportMethod,2024.1.5,None,2024-11-17 10h42.50.537718 +0530,
7,0,7,0,61.34009279985912,,,,,,,,,61.3237664999906,61.34009279985912,61.821247699903324,61.85688989982009,62.82452559983358,62.81007110001519,62.81011259998195,67.81084069982171,"['t', 'w']","[0.6905943001620471, 0.9055440002121031]","[0.0951910000294447, 0.09006969979964197]",2,TWGJ,"['t', 'w']",False,529125,001,2024-11-17_10h42.38.955,PartialReportMethod,2024.1.5,None,2024-11-17 10h42.50.537718 +0530,
8,0,8,0,67.83004509983584,,,,,,,,,67.81306849978864,67.83004509983584,68.32919909991324,68.32919909991324,69.32889229990542,69.31407510000281,69.31411649985239,74.32045749993995,"['y', 'f']","[1.134034899994731, 1.4940667999908328]","[0.07849139999598265, 0.0907407000195235]",0,YFOK,"['y', 'f']",False,529125,001,2024-11-17_10h42.38.955,PartialReportMethod,2024.1.5,None,2024-11-17 10h42.50.537718 +0530,
9,0,9,0,74.33496239990927,,,,,,,,,74.3223048998043,74.33496239990927,74.83565889997408,74.83565889997408,75.83860109979287,75.82010609982535,75.8201297998894,80.82805589982308,['x'],[1.2034165000077337],[0.09521279996261],2,ARER,['x'],False,529125,001,2024-11-17_10h42.38.955,PartialReportMethod,2024.1.5,None,2024-11-17 10h42.50.537718 +0530,
10,0,10,0,80.84322179993615,,,,,,,,,80.82963970000856,80.84322179993615,81.32530039991252,81.35912399995141,82.3307856998872,82.31225289986469,82.31228869990446,87.31971429986879,"['z', 'l']","[0.9792317999526858, 1.3172859998885542]","[0.10892380005680025, 0.09257439989596605]",0,ZLLI,"['z', 'l']",False,529125,001,2024-11-17_10h42.38.955,PartialReportMethod,2024.1.5,None,2024-11-17 10h42.50.537718 +0530,
11,0,11,0,87.33146719983779,,,,,,,,,87.32134679984301,87.33146719983779,87.83439369988628,87.83439369988628,,88.83362809987739,88.83384049986489,93.82268909993581,"['a', 'x']","[0.08153840014711022, 0.6317259999923408]","[0.09642679989337921, 0.0955060999840498]",1,AXJB,"['a', 'x']",False,529125,001,2024-11-17_10h42.38.955,PartialReportMethod,2024.1.5,None,2024-11-17 10h42.50.537718 +0530,
12,0,12,0,93.8391753998585,,,,,,,,,93.82430779980496,93.8391753998585,94.32775509986095,94.34404099988751,,95.32539089978673,95.32542219990864,100.3310032999143,"['b', 'v']","[0.5778391999192536, 0.9747172000352293]","[0.10604840004816651, 0.1053234999999404]",2,BVSZ,"['b', 'v']",False,529125,001,2024-11-17_10h42.38.955,PartialReportMethod,2024.1.5,None,2024-11-17 10h42.50.537718 +0530,
13,0,13,0,100.35066019999795,,,,,,,,,100.33255559997633,100.35066019999795,100.83035880001262,100.8628234998323,101.83276709984057,101.81624659989029,101.81633389997296,106.82037450000644,['x'],[1.5737968001049012],[0.08601649990305305],0,QHIG,['x'],False,529125,001,2024-11-17_10h42.38.955,PartialReportMethod,2024.1.5,None,2024-11-17 10h42.50.537718 +0530,
14,0,14,0,106.8404692998156,,,,,,,,,106.82193539990112,106.8404692998156,107.3216197998263,107.35474399989471,108.32233559992164,108.30571369989775,108.30573829985224,113.31252979999408,"['l', 'b']","[0.7486572000198066, 1.233124200021848]","[0.09869160014204681, 0.09899780014529824]",0,LBCN,"['l', 'b']",False,529125,001,2024-11-17_10h42.38.955,PartialReportMethod,2024.1.5,None,2024-11-17 10h42.50.537718 +0530,
15,0,15,0,113.32848479994573,,,,,,,,,113.3139513998758,113.32848479994573,113.82732619997114,113.82732619997114,114.82867029984482,114.81440509995446,114.81443799985573,119.82059399993159,['w'],[2.3916583999525756],[0.07280709990300238],0,CHJR,['w'],False,529125,001,2024-11-17_10h42.38.955,PartialReportMethod,2024.1.5,None,2024-11-17 10h42.50.537718 +0530,
16,0,16,0,119.8359348999802,,,,,,,,,119.82147089997306,119.8359348999802,120.3341224999167,120.3341224999167,,121.32050399994478,121.32052619988099,126.32781179994345,"['e', 'h']","[1.0831953999586403, 1.6882860001642257]","[0.10213080001994967, 0.12090959982015193]",2,EHDP,"['e', 'h']",False,529125,001,2024-11-17_10h42.38.955,PartialReportMethod,2024.1.5,None,2024-11-17 10h42.50.537718 +0530,
17,0,17,0,126.34162749978714,,,,,,,,,126.32980209984817,126.34162749978714,126.82650439999998,126.84280289988965,127.82685759989545,127.81118569988757,127.81120379990898,132.8164413999766,"['x', 'a']","[0.702935199951753, 0.8725500998552889]","[0.09815689991228282, 0.08935980009846389]",0,HNXY,"['x', 'a']",False,529125,001,2024-11-17_10h42.38.955,PartialReportMethod,2024.1.5,None,2024-11-17 10h42.50.537718 +0530,
18,0,18,0,132.83264609985054,,,,,,,,,132.81741309980862,132.83264609985054,133.336846599821,133.336846599821,,134.33485739980824,134.33488489990123,139.32600099989213,"['b', 'i']","[0.31312600011006, 0.8139551000203937]","[0.09210489992983639, 0.08366920007392764]",2,BICD,"['b', 'i']",False,529125,001,2024-11-17_10h42.38.955,PartialReportMethod,2024.1.5,None,2024-11-17 10h42.50.537718 +0530,
19,0,19,0,139.34107219986618,,,,,,,,,139.3281026999466,139.34107219986618,139.82392759993672,139.84059979999438,140.82602959987707,140.8098963999655,140.80992209981196,145.81472179992124,"['o', 'r']","[0.4764413998927921, 0.9642127999104559]","[0.09140920010395348, 0.10025630006566644]",1,OCPQ,"['o', 'r']",False,529125,001,2024-11-17_10h42.38.955,PartialReportMethod,2024.1.5,None,2024-11-17 10h42.50.537718 +0530,
20,0,20,0,145.82945239986293,,,,,,,,,145.81563539989293,145.82945239986293,146.3310632999055,146.3310632999055,147.33569849980995,147.31474770000204,147.314764799783,152.32226199982688,"['d', 'r']","[1.0173087001312524, 1.226651000091806]","[0.08958469983190298, 0.08549520000815392]",2,DRMJ,"['d', 'r']",False,529125,001,2024-11-17_10h42.38.955,PartialReportMethod,2024.1.5,None,2024-11-17 10h42.50.537718 +0530,
21,0,21,0,152.33629669994116,,,,,,,,,152.32431579986587,152.33629669994116,152.82215559994802,152.83722169999965,153.82228689990006,153.80633930000477,153.80636589997448,158.81308579980396,"['t', 'f']","[0.8846523999236524, 1.158910800004378]","[0.0885292999446392, 0.07971680001355708]",1,TFQS,"['t', 'f']",False,529125,001,2024-11-17_10h42.38.955,PartialReportMethod,2024.1.5,None,2024-11-17 10h42.50.537718 +0530,
22,0,22,0,158.8275663999375,,,,,,,,,158.8139462999534,158.8275663999375,159.33027669996955,159.33027669996955,160.3305910998024,160.31701279990375,160.3172110999003,165.32095159986056,"['v', 'o', 'o', 'p']","[0.7194800998549908, 1.2027105998713523, 1.392015199875459, 1.7800471000373363]","[0.08294500014744699, 0.08246310008689761, 0.0736055001616478, 0.02735729981213808]",0,VOOR,"['v', 'o', 'o', 'p']",False,529125,001,2024-11-17_10h42.38.955,PartialReportMethod,2024.1.5,None,2024-11-17 10h42.50.537718 +0530,
23,0,23,0,165.33376219985075,,,,,,,,,165.32285119988956,165.33376219985075,165.81953789992258,165.8364605999086,166.82204509992152,166.80330459983088,166.80332259996794,171.82394619984552,"['c', 'c']","[0.5707080001011491, 0.7847601000685245]","[0.09200010006316006, 0.08464749995619059]",1,CCIN,"['c', 'c']",False,529125,001,2024-11-17_10h42.38.955,PartialReportMethod,2024.1.5,None,2024-11-17 10h42.50.537718 +0530,
24,0,24,0,171.84375839983113,,,,,,,,,171.82485289988108,171.84375839983113,172.32539969985373,172.3592344999779,173.32727729994804,173.31104559986852,173.3110593999736,178.31620199978352,"['d', 'v']","[0.9793846998363733, 1.3151260998565704]","[0.07894739997573197, 0.08001490007154644]",0,DVNB,"['d', 'v']",False,529125,001,2024-11-17_10h42.38.955,PartialReportMethod,2024.1.5,None,2024-11-17 10h42.50.537718 +0530,
25,0,25,0,178.3324709997978,,,,,,,,,178.31757369986735,178.3324709997978,178.83229959988967,178.83229959988967,179.83391399984248,179.82004139991477,179.8200632999651,184.82367909979075,['l'],[1.9145484000910074],[0.0892574000172317],0,YZXH,['l'],False,529125,001,2024-11-17_10h42.38.955,PartialReportMethod,2024.1.5,None,2024-11-17 10h42.50.537718 +0530,
26,0,26,0,184.84233149979264,,,,,,,,,184.82528859982267,184.84233149979264,185.32619159994647,185.34087179997005,186.3264796999283,186.30971179995686,186.30974439997226,191.31425890000537,['b'],[1.2259917999617755],[0.09027260006405413],2,FZRI,['b'],False,529125,001,2024-11-17_10h42.38.955,PartialReportMethod,2024.1.5,None,2024-11-17 10h42.50.537718 +0530,
27,0,27,0,191.33552399999462,,,,,,,,,191.31522309989668,191.33552399999462,191.83307099994272,191.84777719993144,192.8306785998866,192.82035419996828,192.82037499989383,197.82158649992198,"['v', 'c']","[1.5740583001170307, 1.9804706000722945]","[0.10196019988507032, 0.0764197998214513]",1,OFCQ,"['v', 'c']",False,529125,001,2024-11-17_10h42.38.955,PartialReportMethod,2024.1.5,None,2024-11-17 10h42.50.537718 +0530,
28,0,28,0,197.83741169981658,,,,,,,,,197.82247529993765,197.83741169981658,198.32070919987746,198.34012579987757,199.32280849991366,199.30796859995462,199.30800009984523,204.31278749997728,"['t', 'r']","[0.6656096000224352, 1.2922904000151902]","[0.08141570002771914, 0.07819180004298687]",0,XMTV,"['t', 'r']",False,529125,001,2024-11-17_10h42.38.955,PartialReportMethod,2024.1.5,None,2024-11-17 10h42.50.537718 +0530,
29,0,29,0,204.33034439990297,,,,,,,,,204.3149583998602,204.33034439990297,204.82864929991774,204.82864929991774,205.8321669998113,205.8135027999524,205.81352879991755,210.82134039979428,"['m', 't']","[1.0063980999402702, 1.4665494998916984]","[0.09463010006584227, 0.07978300005197525]",0,XSAD,"['m', 't']",False,529125,001,2024-11-17_10h42.38.955,PartialReportMethod,2024.1.5,None,2024-11-17 10h42.50.537718 +0530,
30,0,30,0,210.8342132999096,,,,,,,,,210.82270569982938,210.8342132999096,211.33571319980547,211.33571319980547,212.33862369996496,212.31952599994838,212.31953849992715,217.32549949991517,"['y', 'c']","[0.5336648998782039, 0.9118049999233335]","[0.0814022000413388, 0.07714450010098517]",0,YCKI,"['y', 'c']",False,529125,001,2024-11-17_10h42.38.955,PartialReportMethod,2024.1.5,None,2024-11-17 10h42.50.537718 +0530,
31,0,31,0,217.34378949995153,,,,,,,,,217.32697279984131,217.34378949995153,217.82899469998665,217.84206449985504,,218.8276442999486,218.82767079980113,223.83417129982263,"['j', 'h']","[0.5538265001960099, 0.9589822001289576]","[0.08572289999574423, 0.07779380003921688]",1,XUCQ,"['j', 'h']",False,529125,001,2024-11-17_10h42.38.955,PartialReportMethod,2024.1.5,None,2024-11-17 10h42.50.537718 +0530,
32,0,32,0,223.8522602999583,,,,,,,,,223.83600589982234,223.8522602999583,224.33373719989322,224.37033999990672,,225.32183859986253,225.32187310000882,230.32195259979926,"['l', 'd']","[0.45315860002301633, 1.0494981999509037]","[0.09008900006301701, 0.08891299995593727]",1,LDTP,"['l', 'd']",False,529125,001,2024-11-17_10h42.38.955,PartialReportMethod,2024.1.5,None,2024-11-17 10h42.50.537718 +0530,
33,0,33,0,230.34114849986508,,,,,,,,,230.32305869995616,230.34114849986508,230.82500709989108,230.8418782998342,,231.8263785999734,231.82644189987332,236.82937499997206,"['d', 'a']","[0.6038120000157505, 0.7617454000283033]","[0.07852130010724068, 0.0918932999484241]",1,GAZY,"['d', 'a']",False,529125,001,2024-11-17_10h42.38.955,PartialReportMethod,2024.1.5,None,2024-11-17 10h42.50.537718 +0530,
34,0,34,0,236.8467454998754,,,,,,,,,236.83026289986446,236.8467454998754,237.3297768998891,237.34871089993976,238.33301429986022,238.3169223999139,238.31693879980594,243.32210949994624,"['y', 'j']","[0.4300599000416696, 0.7976493001915514]","[0.06915830005891621, 0.07604409987106919]",2,YJNP,"['y', 'j']",False,529125,001,2024-11-17_10h42.38.955,PartialReportMethod,2024.1.5,None,2024-11-17 10h42.50.537718 +0530,
35,0,35,0,243.34237779979594,,,,,,,,,243.3238454000093,243.34237779979594,243.82184789981693,243.85574639984407,244.82219899981283,244.81144479988143,244.8114765000064,249.81204779981636,"['m', 'g']","[0.3515184000134468, 0.8302291000727564]","[0.09137660008855164, 0.07570770010352135]",0,MCMX,"['m', 'g']",False,529125,001,2024-11-17_10h42.38.955,PartialReportMethod,2024.1.5,None,2024-11-17 10h42.50.537718 +0530,
36,0,36,0,249.8295797999017,,,,,,,,,249.81333259982057,249.8295797999017,250.33117589983158,250.33117589983158,251.32846229989082,251.316379299853,251.31658659991808,256.3191075997893,['e'],[1.5054643000476062],[0.09447370003908873],0,EGJT,['e'],False,529125,001,2024-11-17_10h42.38.955,PartialReportMethod,2024.1.5,None,2024-11-17 10h42.50.537718 +0530,
37,0,37,0,256.3373022999149,,,,,,,,,256.31995559995994,256.3373022999149,256.81929969997145,256.8528244998306,257.82100809994154,257.804558099946,257.8045720998198,262.8107527999673,"['i', 'h']","[0.5241815999615937, 0.9092490000184625]","[0.09883140004239976, 0.07905729999765754]",1,IHRV,"['i', 'h']",False,529125,001,2024-11-17_10h42.38.955,PartialReportMethod,2024.1.5,None,2024-11-17 10h42.50.537718 +0530,
38,0,38,0,262.82947379979305,,,,,,,,,262.8123956997879,262.82947379979305,263.32706579985097,263.3433338999748,264.32822209992446,264.3125046999194,264.312543499982,269.32009339984506,None,,,2,ZKAX,None,False,529125,001,2024-11-17_10h42.38.955,PartialReportMethod,2024.1.5,None,2024-11-17 10h42.50.537718 +0530,
39,0,39,0,269.3346138999332,,,,,,,,,269.3208380998112,269.3346138999332,269.8188806998078,269.834751999937,270.81657219980843,270.80622209981084,270.8062479000073,275.8067461999599,"['e', 'g']","[0.33393590012565255, 0.8684030000586063]","[0.10219489992596209, 0.0857512999791652]",0,EGWT,"['e', 'g']",False,529125,001,2024-11-17_10h42.38.955,PartialReportMethod,2024.1.5,None,2024-11-17 10h42.50.537718 +0530,
40,0,40,0,275.8236186997965,,,,,,,,,275.80763920000754,275.8236186997965,276.3238672998268,276.3238672998268,277.32488460000604,277.30848699994385,277.30851159989834,282.3154012998566,['m'],[0.4257151000201702],[0.0876122999470681],0,MQUG,['m'],False,529125,001,2024-11-17_10h42.38.955,PartialReportMethod,2024.1.5,None,2024-11-17 10h42.50.537718 +0530,
41,0,41,0,282.33221089979634,,,,,,,,,282.3175210999325,282.33221089979634,282.83010609983467,282.8480364999268,283.83306370000355,283.81716679991223,283.8172064998653,288.8211228,['t'],[0.7235371000133455],[0.07919019996188581],0,USJP,['t'],False,529125,001,2024-11-17_10h42.38.955,PartialReportMethod,2024.1.5,None,2024-11-17 10h42.50.537718 +0530,
42,0,42,0,288.83969149994664,,,,,,,,,288.8230106998235,288.83969149994664,289.3223972998094,289.33795699989423,,290.32694559986703,290.3269715998322,295.32722909981385,['l'],[1.123460500035435],[0.10958940000273287],2,LSJQ,['l'],False,529125,001,2024-11-17_10h42.38.955,PartialReportMethod,2024.1.5,None,2024-11-17 10h42.50.537718 +0530,
43,0,43,0,295.3462205999531,,,,,,,,,295.3283231998794,295.3462205999531,295.8289195999969,295.8489224999212,296.8292429000139,296.8165854997933,296.81662239995785,301.8199165998958,"['c', 'g']","[1.7527059998828918, 1.9669283998664469]","[0.09754500002600253, 0.08936300012283027]",1,TNXW,"['c', 'g']",False,529125,001,2024-11-17_10h42.38.955,PartialReportMethod,2024.1.5,None,2024-11-17 10h42.50.537718 +0530,
44,0,44,0,301.8379650998395,,,,,,,,,301.82135919993743,301.8379650998395,302.3182242999319,302.3542580998037,303.32143799983896,303.30751049984246,303.3075522999279,308.3093005998526,"['f', 'y']","[0.8049884000793099, 1.0137193000409752]","[0.07243199995718896, 0.07611229992471635]",2,FGFS,"['f', 'y']",False,529125,001,2024-11-17_10h42.38.955,PartialReportMethod,2024.1.5,None,2024-11-17 10h42.50.537718 +0530,
45,0,45,0,308.3287386999,,,,,,,,,308.31060909992084,308.3287386999,308.829099399969,308.829099399969,309.826757799834,309.814742699964,309.81477089994587,314.81573679996654,['y'],[0.8309119001496583],[0.08549509989097714],0,ZAIM,['y'],False,529125,001,2024-11-17_10h42.38.955,PartialReportMethod,2024.1.5,None,2024-11-17 10h42.50.537718 +0530,
46,0,46,0,314.8343336000107,,,,,,,,,314.8165784999728,314.8343336000107,315.336274900008,315.336274900008,,316.339212999912,316.3392426997889,321.323211699957,"['p', 'u']","[0.42335659987293184, 0.8709305999800563]","[0.09673300012946129, 0.1380537999793887]",2,PUDF,"['p', 'u']",False,529125,001,2024-11-17_10h42.38.955,PartialReportMethod,2024.1.5,None,2024-11-17 10h42.50.537718 +0530,
47,0,47,0,321.34143789997324,,,,,,,,,321.32428409997374,321.34143789997324,321.82288969983347,321.8593161997851,322.8255950999446,322.8105496999342,322.8105746000074,327.8192184998188,['k'],[0.6268267999403179],[0.07968449988402426],0,KCGV,['k'],False,529125,001,2024-11-17_10h42.38.955,PartialReportMethod,2024.1.5,None,2024-11-17 10h42.50.537718 +0530,
48,0,48,0,327.83458629995584,,,,,,,,,327.8208951000124,327.83458629995584,328.33207529992796,328.3507561997976,329.3345223998185,329.3171869998332,329.3172160999384,334.32100389990956,"['o', 'n']","[0.11843869998119771, 0.5462309999857098]","[0.08252370008267462, 0.07962650014087558]",2,ONPN,"['o', 'n']",False,529125,001,2024-11-17_10h42.38.955,PartialReportMethod,2024.1.5,None,2024-11-17 10h42.50.537718 +0530,
49,0,49,0,334.33685709978454,,,,,,,,,334.3224660998676,334.33685709978454,334.8227134998888,334.8383582998067,335.82271489989944,335.80748989991844,335.80753029999323,340.8132484999951,"['o', 'e']","[1.0125671999994665, 2.04246489983052]","[0.10253909998573363, 0.0854736000765115]",1,QESS,"['o', 'e']",False,529125,001,2024-11-17_10h42.38.955,PartialReportMethod,2024.1.5,None,2024-11-17 10h42.50.537718 +0530,
50,0,50,0,340.83051349991,,,,,,,,,340.8147683998104,340.83051349991,341.33067199983634,341.3440883997828,342.33268489991315,342.31449379981495,342.3145236999262,347.3212207998149,"['z', 'r']","[1.1827229000627995, 1.7699184000957757]","[0.13169629988260567, 0.09567640000022948]",2,JARS,"['z', 'r']",False,529125,001,2024-11-17_10h42.38.955,PartialReportMethod,2024.1.5,None,2024-11-17 10h42.50.537718 +0530,
51,0,51,0,347.33795209997334,,,,,,,,,347.324245599797,347.33795209997334,347.8193787999917,347.85265599982813,348.82362379995175,348.8034471999854,348.8034642999992,353.8099080999382,"['c', 'i']","[0.08552710013464093, 0.47389809996820986]","[0.11202390003018081, 0.10608250019140542]",2,CIJV,"['c', 'i']",False,529125,001,2024-11-17_10h42.38.955,PartialReportMethod,2024.1.5,None,2024-11-17 10h42.50.537718 +0530,
52,0,52,0,353.8257477998268,,,,,,,,,353.811102299951,353.8257477998268,354.3265624998603,354.3265624998603,355.3280009999871,355.3109333999455,355.31094719981775,360.31884769978933,['r'],[0.6239977001678199],[0.09554789983667433],0,RHXB,['r'],False,529125,001,2024-11-17_10h42.38.955,PartialReportMethod,2024.1.5,None,2024-11-17 10h42.50.537718 +0530,
53,0,53,0,360.333701599855,,,,,,,,,360.3197461999953,360.333701599855,360.8329961998388,360.8329961998388,,361.8215944999829,361.82162639987655,366.8233992999885,['r'],[0.6320339001249522],[0.08914209995418787],1,LGRS,['r'],False,529125,001,2024-11-17_10h42.38.955,PartialReportMethod,2024.1.5,None,2024-11-17 10h42.50.537718 +0530,
54,0,54,0,366.84085729997605,,,,,,,,,366.82525839982554,366.84085729997605,367.32402719999664,367.3407378999982,368.3258214998059,368.3122577997856,368.31227859994397,373.3140077998396,"['h', 't']","[0.4349940000101924, 0.686255200067535]","[0.09967210004106164, 0.08277099998667836]",0,HTLE,"['h', 't']",False,529125,001,2024-11-17_10h42.38.955,PartialReportMethod,2024.1.5,None,2024-11-17 10h42.50.537718 +0530,
55,0,55,0,373.3328207999002,,,,,,,,,373.3148907998111,373.3328207999002,373.8333796998486,373.8490083999932,374.8321069998201,374.8171046997886,374.8171272999607,379.82183699985035,"['c', 'o']","[0.6331605999730527, 1.037018699804321]","[0.059974199859425426, 0.08325230004265904]",0,CNIK,"['c', 'o']",False,529125,001,2024-11-17_10h42.38.955,PartialReportMethod,2024.1.5,None,2024-11-17 10h42.50.537718 +0530,
56,0,56,0,379.83733009989373,,,,,,,,,379.8235671999864,379.83733009989373,380.3206327999942,380.3405328998342,381.3236714999657,381.3095072999131,381.3095356998965,387.2144698998891,"['k', 'a']","[0.760694099823013, 0.9671686999499798]","[0.07356850011274219, 0.10223710001446307]",2,QDCZ,"['k', 'a']",False,529125,001,2024-11-17_10h42.38.955,PartialReportMethod,2024.1.5,None,2024-11-17 10h42.50.537718 +0530,
57,0,57,0,388.1421814998612,,,,,,,,,387.3454791000113,388.1421814998612,388.1421814998612,,,388.14247189997695,388.1424977998249,392.839352699928,"['m', 'm']","[4.214326200075448, 4.40069629997015]","[0.10444539994932711, 0.08917040005326271]",1,IAPJ,"['m', 'm']",False,529125,001,2024-11-17_10h42.38.955,PartialReportMethod,2024.1.5,None,2024-11-17 10h42.50.537718 +0530,
58,0,58,0,392.85946689988486,,,,,,,,,392.84288129978813,392.85946689988486,393.32200259994715,393.3715881998651,,394.33517609979026,394.3353829998523,399.3548024999909,"['r', 'o']","[2.150688000023365, 2.287854399997741]","[0.09702240000478923, 0.08703309996053576]",1,ROVE,"['r', 'o']",False,529125,001,2024-11-17_10h42.38.955,PartialReportMethod,2024.1.5,None,2024-11-17 10h42.50.537718 +0530,
59,0,59,0,399.4419310998637,,,,,,,,,399.4207363999449,399.4419310998637,399.828546699835,399.94399229995906,400.83197569986805,400.8131694998592,400.8132036998868,405.81831549992785,"['d', 'l']","[1.2284656001720577, 1.8231526999734342]","[0.0926915998570621, 0.08536330005154014]",1,DUQR,"['d', 'l']",False,529125,001,2024-11-17_10h42.38.955,PartialReportMethod,2024.1.5,None,2024-11-17 10h42.50.537718 +0530,
60,0,60,0,405.83860609983094,,,,,,,,,405.8219359999057,405.83860609983094,406.31757119996473,406.351042999886,407.32388899987563,407.30389149999246,407.30393029982224,412.3129420999903,"['d', 'f']","[1.5810571000911295, 2.135363700101152]","[0.08495069993659854, 0.07642639987170696]",2,QNFC,"['d', 'f']",False,529125,001,2024-11-17_10h42.38.955,PartialReportMethod,2024.1.5,None,2024-11-17 10h42.50.537718 +0530,
61,0,61,0,412.33897819998674,,,,,,,,,412.3174899998121,412.33897819998674,412.82870800001547,412.84194049984217,,413.8284659998026,413.8285050999839,418.8307864998933,"['b', 'w', 'w']","[0.8389834000263363, 1.3033082000911236, 1.595970300026238]","[0.08538819989189506, 0.07172979996539652, 0.06586079997941852]",2,BWWN,"['b', 'w', 'w']",False,529125,001,2024-11-17_10h42.38.955,PartialReportMethod,2024.1.5,None,2024-11-17 10h42.50.537718 +0530,
62,0,62,0,418.85383729985915,,,,,,,,,418.8357855998911,418.85383729985915,419.3340737000108,419.36617699987255,420.3357956998516,420.3200482998509,420.32009419985116,425.3238100998569,['t'],[0.8348215001169592],[0.08166130003519356],0,ESTL,['t'],False,529125,001,2024-11-17_10h42.38.955,PartialReportMethod,2024.1.5,None,2024-11-17 10h42.50.537718 +0530,
63,0,63,0,425.3418073998764,,,,,,,,,425.32596729998477,425.3418073998764,425.82193410000764,425.85609549982473,426.8246523998678,426.81663499982096,426.816671699984,431.8130297998432,"['m', 'b']","[1.102362200152129, 1.5231097000651062]","[0.08187210001051426, 0.08178299991413951]",2,MBCG,"['m', 'b']",False,529125,001,2024-11-17_10h42.38.955,PartialReportMethod,2024.1.5,None,2024-11-17 10h42.50.537718 +0530,
64,0,64,0,431.8353856999893,,,,,,,,,431.8165710999165,431.8353856999893,432.32935409992933,432.35057139978744,433.33120309980586,433.3163942999672,433.3164419999812,438.3214637998026,['g'],[0.8910729000344872],[0.08237909991294146],1,MGAO,['g'],False,529125,001,2024-11-17_10h42.38.955,PartialReportMethod,2024.1.5,None,2024-11-17 10h42.50.537718 +0530,
65,0,65,0,438.3450748999603,,,,,,,,,438.3253878999967,438.3450748999603,438.821187999798,438.8544356999919,439.82296759984456,439.8069326998666,439.8069720999338,444.8134951000102,"['r', 'u']","[0.6623962000012398, 1.0691432999446988]","[0.07942470000125468, 0.07288820017129183]",2,RUQM,"['r', 'u']",False,529125,001,2024-11-17_10h42.38.955,PartialReportMethod,2024.1.5,None,2024-11-17 10h42.50.537718 +0530,
66,0,66,0,444.83674800000153,,,,,,,,,444.8174944999628,444.83674800000153,445.3301901000086,445.34471410000697,446.327336399816,446.3152354999911,446.3152718998026,451.32027639984153,"['j', 'o', 'j', 'x']","[0.36694819992408156, 0.7924812000710517, 1.1803065999411047, 1.6251667998731136]","[0.07163819996640086, 0.056209699949249625, 0.04298130003735423, 0.07274490012787282]",0,JOJX,"['j', 'o', 'j', 'x']",False,529125,001,2024-11-17_10h42.38.955,PartialReportMethod,2024.1.5,None,2024-11-17 10h42.50.537718 +0530,
67,0,67,0,451.3410906000063,,,,,,,,,451.3225455000065,451.3410906000063,451.82013949984685,451.8538616998121,452.81985779991373,452.8053505998105,452.8054322998505,457.81206779996864,['w'],[0.4886755000334233],[0.10794350015930831],2,GWJE,['w'],False,529125,001,2024-11-17_10h42.38.955,PartialReportMethod,2024.1.5,None,2024-11-17 10h42.50.537718 +0530,
68,0,68,0,457.83207329991274,,,,,,,,,457.8154188999906,457.83207329991274,458.32473089988343,458.3427432999015,459.3273357998114,459.31479629990645,459.3148359998595,464.3169865999371,['t'],[0.5795426000840962],[0.08230750006623566],0,KQKJ,['t'],False,529125,001,2024-11-17_10h42.38.955,PartialReportMethod,2024.1.5,None,2024-11-17 10h42.50.537718 +0530,
69,0,69,0,464.33455809997395,,,,,,,,,464.31949909985997,464.33455809997395,464.83152889995836,464.84816679987125,465.83563029998913,465.8173284998629,465.8173678999301,470.8253459997941,"['p', 'm']","[0.13385330000892282, 0.4588331999257207]","[0.09001909988000989, 0.07927939994260669]",1,PMVF,"['p', 'm']",False,529125,001,2024-11-17_10h42.38.955,PartialReportMethod,2024.1.5,None,2024-11-17 10h42.50.537718 +0530,
70,0,70,0,470.8450309999753,,,,,,,,,470.8289861998055,470.8450309999753,471.3225790997967,471.3565149998758,472.32412259979174,472.31232809997164,472.3123926999979,477.3129692999646,"['r', 'q']","[0.7271857000887394, 1.7360674000810832]","[0.09127400000579655, 0.0713219998870045]",0,BZIJ,"['r', 'q']",False,529125,001,2024-11-17_10h42.38.955,PartialReportMethod,2024.1.5,None,2024-11-17 10h42.50.537718 +0530,
71,0,71,0,477.33727699983865,,,,,,,,,477.31600629980676,477.33727699983865,477.8304024999961,477.84825489996,478.83069869992323,478.8150155998301,478.8150390998926,483.8489929998759,['w'],[1.3625483999494463],[0.11745360004715621],0,WHCK,['w'],False,529125,001,2024-11-17_10h42.38.955,PartialReportMethod,2024.1.5,None,2024-11-17 10h42.50.537718 +0530,
72,0,72,0,483.8683009999804,,,,,,,,,483.85214299988,483.8683009999804,484.32282949984074,484.373308399925,,485.3212903998792,485.32133069983684,490.3296477999538,"['z', 'm']","[0.8860308001749218, 1.3058248001616448]","[0.09638189990073442, 0.0811532000079751]",0,ZMVU,"['z', 'm']",False,529125,001,2024-11-17_10h42.38.955,PartialReportMethod,2024.1.5,None,2024-11-17 10h42.50.537718 +0530,
73,0,73,0,490.3481888999231,,,,,,,,,490.33180239982903,490.3481888999231,490.8287372998893,490.86073859990574,491.8313374000136,491.8169182999991,491.8169650998898,496.81610059994273,"['h', 'f']","[0.5997448000125587, 0.9279757998883724]","[0.1072420000564307, 0.09713300014846027]",2,HFLY,"['h', 'f']",False,529125,001,2024-11-17_10h42.38.955,PartialReportMethod,2024.1.5,None,2024-11-17 10h42.50.537718 +0530,
74,0,74,0,496.83638129988685,,,,,,,,,496.8177496998105,496.83638129988685,497.335310800001,497.3522351998836,,498.3375394998584,498.33757069986314,503.3232606998645,['j'],[1.080923399887979],[0.08963600010611117],0,SFXC,['j'],False,529125,001,2024-11-17_10h42.38.955,PartialReportMethod,2024.1.5,None,2024-11-17 10h42.50.537718 +0530,
75,0,75,0,503.34440209995955,,,,,,,,,503.324257100001,503.34440209995955,503.8232838998083,503.8597444999032,504.82688889978454,504.8120592997875,504.8120843998622,509.81652709981427,"['u', 'o']","[1.7003820999525487, 1.9173904999624938]","[0.06491299998015165, 0.084139300044626]",2,GRJV,"['u', 'o']",False,529125,001,2024-11-17_10h42.38.955,PartialReportMethod,2024.1.5,None,2024-11-17 10h42.50.537718 +0530,
76,0,76,0,509.83253429993056,,,,,,,,,509.81750979996286,509.83253429993056,510.33155399980024,510.33155399980024,511.33366140001453,511.3164729999844,511.3164990998339,516.3240681998432,"['t', 'b']","[0.9668196002021432, 1.3217176999896765]","[0.07847609999589622, 0.07226260006427765]",2,BTGP,"['t', 'b']",False,529125,001,2024-11-17_10h42.38.955,PartialReportMethod,2024.1.5,None,2024-11-17 10h42.50.537718 +0530,
77,0,77,0,516.3372107998002,,,,,,,,,516.3261070000008,516.3372107998002,516.8224340998568,516.8388243999798,517.8219758998603,517.8120317999274,517.8120604997966,522.8117455998436,"['i', 'b']","[0.5980821000412107, 0.9378178999759257]","[0.07127099996432662, 0.06433030008338392]",2,IBSM,"['i', 'b']",False,529125,001,2024-11-17_10h42.38.955,PartialReportMethod,2024.1.5,None,2024-11-17 10h42.50.537718 +0530,
78,0,78,0,522.8288388999645,,,,,,,,,522.812563699903,522.8288388999645,523.3327530999668,523.3327530999668,,524.3304467999842,524.3304708998185,529.3204789999872,"['a', 'b']","[0.4842930000741035, 0.9687366001307964]","[0.0997202000580728, 0.0828737998381257]",0,AZFS,"['a', 'b']",False,529125,001,2024-11-17_10h42.38.955,PartialReportMethod,2024.1.5,None,2024-11-17 10h42.50.537718 +0530,
79,0,79,0,529.3376964998897,,,,,,,,,529.3217543999199,529.3376964998897,529.8191221999004,529.8537090998143,530.8233055998571,530.8058761998545,530.8059031998273,535.8130242999177,"['h', 'k']","[1.7831824999302626, 2.1830341001041234]","[0.09870030009187758, 0.09202999994158745]",0,HKYO,"['h', 'k']",False,529125,001,2024-11-17_10h42.38.955,PartialReportMethod,2024.1.5,None,2024-11-17 10h42.50.537718 +0530,
80,0,80,0,535.8262878998648,,,,,,,,,535.8145959998947,535.8262878998648,536.3270271997899,536.3270271997899,537.3305648998357,537.3120360998437,537.3120558999944,542.3175400998443,"['r', 'h']","[0.9374871999025345, 1.3926224999595433]","[0.08192529994994402, 0.08397269994020462]",2,RHEC,"['r', 'h']",False,529125,001,2024-11-17_10h42.38.955,PartialReportMethod,2024.1.5,None,2024-11-17 10h42.50.537718 +0530,
81,0,81,0,542.3347608998884,,,,,,,,,542.3194679999724,542.3347608998884,542.8331202999689,542.8331202999689,543.8343189998996,543.8191428999417,543.819168199785,548.8259113999084,"['u', 'o']","[0.556634500157088, 0.856940200086683]","[0.09001210005953908, 0.0832209000363946]",2,UQBO,"['u', 'o']",False,529125,001,2024-11-17_10h42.38.955,PartialReportMethod,2024.1.5,None,2024-11-17 10h42.50.537718 +0530,
82,0,82,0,548.8417014000006,,,,,,,,,548.8275111999828,548.8417014000006,549.3248098997865,549.3416385999881,550.3265422999393,550.3104380997829,550.3104556999169,555.3145904999692,"['s', 'x']","[0.8512991999741644, 1.3498614998534322]","[0.08283689990639687, 0.09598530014045537]",2,UNHI,"['s', 'x']",False,529125,001,2024-11-17_10h42.38.955,PartialReportMethod,2024.1.5,None,2024-11-17 10h42.50.537718 +0530,
83,0,83,0,555.3350724999327,,,,,,,,,555.3156264999416,555.3350724999327,555.8330988998059,555.8520016998518,556.8325030999258,556.8188484997954,556.8188869999722,561.8211264999118,"['e', 'h']","[0.620122600113973, 0.9857324999757111]","[0.0823287998791784, 0.08619080018252134]",0,YLQN,"['e', 'h']",False,529125,001,2024-11-17_10h42.38.955,PartialReportMethod,2024.1.5,None,2024-11-17 10h42.50.537718 +0530,
84,0,84,0,561.8402700999286,,,,,,,,,561.8221156999934,561.8402700999286,562.3217903999612,562.3566875997931,563.3227491998114,563.3079814999364,563.3080158999655,568.311613699887,None,,,1,WSDR,None,False,529125,001,2024-11-17_10h42.38.955,PartialReportMethod,2024.1.5,None,2024-11-17 10h42.50.537718 +0530,
85,0,85,0,568.3296716997866,,,,,,,,,568.3122864998877,568.3296716997866,568.8293839998078,568.8465919999871,569.8312769997865,569.814617499942,569.8146474999376,574.8223359999247,['e'],[1.3975154000800103],[0.12076329998672009],2,DWQF,['e'],False,529125,001,2024-11-17_10h42.38.955,PartialReportMethod,2024.1.5,None,2024-11-17 10h42.50.537718 +0530,
86,0,86,0,574.8359188998584,,,,,,,,,574.8234929000027,574.8359188998584,575.3209291999228,575.3397030998021,576.3199953997973,576.3069882998243,576.3070119998883,581.3094164999202,"['e', 'k']","[0.9075050998944789, 1.271075899945572]","[0.14571670000441372, 0.0697866000700742]",1,EYXI,"['e', 'k']",False,529125,001,2024-11-17_10h42.38.955,PartialReportMethod,2024.1.5,None,2024-11-17 10h42.50.537718 +0530,
87,0,87,0,581.3260839998256,,,,,,,,,581.3102592998184,581.3260839998256,581.8288900998887,581.8288900998887,,582.828272299841,582.8283183998428,587.8349708998576,"['m', 'i']","[0.6532836998812854, 0.9082223998848349]","[0.08460840000770986, 0.08845919999293983]",0,MWDB,"['m', 'i']",False,529125,001,2024-11-17_10h42.38.955,PartialReportMethod,2024.1.5,None,2024-11-17 10h42.50.537718 +0530,
88,0,88,0,587.850720499875,,,,,,,,,587.8360891998746,587.850720499875,588.3347015997861,588.3519947999157,589.3366961998399,589.3211929998361,589.3212221998256,594.3241437999532,"['g', 't']","[0.6861078999936581, 0.8582438000012189]","[0.08593720011413097, 0.08098960015922785]",1,SHGI,"['g', 't']",False,529125,001,2024-11-17_10h42.38.955,PartialReportMethod,2024.1.5,None,2024-11-17 10h42.50.537718 +0530,
89,0,89,0,594.3449024998117,,,,,,,,,594.3258324000053,594.3449024998117,594.8279754999094,594.8430399999488,,595.8275841998402,595.8276141998358,600.8303249999881,['y'],[0.8849124999251217],[0.09242479992099106],0,FSJR,['y'],False,529125,001,2024-11-17_10h42.38.955,PartialReportMethod,2024.1.5,None,2024-11-17 10h42.50.537718 +0530,
90,0,90,0,600.8518538998906,,,,,,,,,600.831188699929,600.8518538998906,601.331473799888,601.3661814997904,602.3318334999494,602.3178610999603,602.3178953998722,607.3206654000096,"['f', 'm']","[0.6067073999438435, 1.0703139998950064]","[0.09642580011859536, 0.07737620011903346]",0,FMGN,"['f', 'm']",False,529125,001,2024-11-17_10h42.38.955,PartialReportMethod,2024.1.5,None,2024-11-17 10h42.50.537718 +0530,
91,0,91,0,607.3421074999496,,,,,,,,,607.3215867998078,607.3421074999496,607.8229586000089,607.8547359998338,608.8247389998287,608.8100709000137,608.8100929998327,613.812914500013,"['n', 'n']","[0.4274425997864455, 0.6350105998571962]","[0.09170920005999506, 0.0788326000329107]",0,NNMJ,"['n', 'n']",False,529125,001,2024-11-17_10h42.38.955,PartialReportMethod,2024.1.5,None,2024-11-17 10h42.50.537718 +0530,
92,0,92,0,613.8313529000152,,,,,,,,,613.8141782998573,613.8313529000152,614.330744399922,614.330744399922,615.3299579999875,615.31784529984,615.3178696997929,620.3195121998433,"['u', 't']","[1.4566440000198781, 1.7221539998427033]","[0.07515219994820654, 0.07570670009590685]",0,LZYW,"['u', 't']",False,529125,001,2024-11-17_10h42.38.955,PartialReportMethod,2024.1.5,None,2024-11-17 10h42.50.537718 +0530,
93,0,93,0,620.34056029981,,,,,,,,,620.3207659998443,620.34056029981,620.8196984999813,620.8530435999855,621.8203640999272,621.8056336999871,621.8056497999933,626.8108479999937,"['g', 'f']","[1.7578470001462847, 1.9392852999735624]","[0.09882279997691512, 0.08646839996799827]",1,SJUW,"['g', 'f']",False,529125,001,2024-11-17_10h42.38.955,PartialReportMethod,2024.1.5,None,2024-11-17 10h42.50.537718 +0530,
94,0,94,0,626.8260788999032,,,,,,,,,626.812327099964,626.8260788999032,627.3311502998695,627.3311502998695,,628.3297212999314,628.3297446998768,634.807890099939,"['g', 'c']","[0.6419871000107378, 1.0019403998740017]","[0.1107619998510927, 0.13207040005363524]",2,GCTO,"['g', 'c']",False,529125,001,2024-11-17_10h42.38.955,PartialReportMethod,2024.1.5,None,2024-11-17 10h42.50.537718 +0530,
95,0,95,0,634.8982756999321,,,,,,,,,634.84621099988,,,,,634.8905489000026,634.8905688999221,639.825449799886,None,,,2,BUZV,None,False,529125,001,2024-11-17_10h42.38.955,PartialReportMethod,2024.1.5,None,2024-11-17 10h42.50.537718 +0530,
96,0,96,0,639.8425635998137,,,,,,,,,639.8272067999933,639.8425635998137,640.3262147998903,640.3451255999971,641.3264998998493,641.3111707000062,641.3111994999927,646.3175466000102,"['n', 'm']","[0.9360491000115871, 1.2094378999900073]","[0.09906259994022548, 0.08538879989646375]",2,FPSW,"['n', 'm']",False,529125,001,2024-11-17_10h42.38.955,PartialReportMethod,2024.1.5,None,2024-11-17 10h42.50.537718 +0530,
97,0,97,0,646.3375102998689,,,,,,,,,646.3200949998572,646.3375102998689,646.8326312999707,646.8507496998645,647.8346545998938,647.8190811998211,647.8191320998594,652.8243518997915,"['l', 'd']","[1.0016133000608534, 2.024249300127849]","[0.08503479999490082, 0.08945929980836809]",1,LDYN,"['l', 'd']",False,529125,001,2024-11-17_10h42.38.955,PartialReportMethod,2024.1.5,None,2024-11-17 10h42.50.537718 +0530,
98,0,98,0,652.8448548999149,,,,,,,,,652.8286396998446,652.8448548999149,653.3245229998138,653.3585878999438,654.3239008998498,654.3119041998871,654.3119486998767,659.3145373999141,"['c', 'c']","[0.4314015000127256, 0.6336721000261605]","[0.07792229996994138, 0.0754275000654161]",1,CCUA,"['c', 'c']",False,529125,001,2024-11-17_10h42.38.955,PartialReportMethod,2024.1.5,None,2024-11-17 10h42.50.537718 +0530,
99,0,99,0,659.3351265999954,,,,,,,,,659.3186661999207,659.3351265999954,659.8324968998786,659.8324968998786,660.8351563999895,660.8171852999367,660.8172201998532,665.8209168999456,['a'],[1.105253100162372],[0.14148129988461733],0,AKRP,['a'],False,529125,001,2024-11-17_10h42.38.955,PartialReportMethod,2024.1.5,None,2024-11-17 10h42.50.537718 +0530,
