trials.thisRepN,trials.thisTrialN,trials.thisN,trials.thisIndex,thisRow.t,notes,introduction.started,text.started,key_resp_2.started,introduction.stopped,key_resp_2.keys,key_resp_2.rt,key_resp_2.duration,trial.started,letter_grid.started,row_cue.started,letter_grid.stopped,row_cue.stopped,trial.stopped,response_routine.started,response_routine.stopped,response.keys,Cued Row,Correct Row,Participant Response,Is Correct,response.rt,response.duration,participant,session,date,expName,psychopyVersion,frameRate,expStart,
,,,,,,0.003366400022059679,0.021063599968329072,0.021063599968329072,23.27694289991632,space,23.23121009999886,None,,,,,,,,,,,,,,,,639051,001,2024-11-17_15h10.11.700,PartialReportMethod,2024.1.5,None,2024-11-17 15h10.19.181379 +0530,
0,0,0,0,23.30348809994757,,,,,,,,,23.28339589992538,23.30348809994757,23.780956299975514,23.814101699972525,24.281284000026062,24.265719400020316,24.265802099835128,29.27149589988403,None,1,LFKX,None,False,,,639051,001,2024-11-17_15h10.11.700,PartialReportMethod,2024.1.5,None,2024-11-17 15h10.19.181379 +0530,
1,0,1,0,29.379301599925384,,,,,,,,,29.276179099921137,29.379301599925384,29.787812900030985,29.887810199987143,30.28828509990126,30.272437299834564,30.272473599994555,35.27709749992937,"['j', 'w']",0,JUNV,"['j', 'w']",False,"[1.3801593999378383, 1.7720892999786884]","[0.2055091999936849, 0.2328941999003291]",639051,001,2024-11-17_15h10.11.700,PartialReportMethod,2024.1.5,None,2024-11-17 15h10.19.181379 +0530,
2,0,2,0,35.298180599929765,,,,,,,,,35.28082689992152,35.298180599929765,35.777481799945235,35.81090629985556,36.278211399912834,36.26259069982916,36.262622399954125,41.26781350001693,"['z', 'r']",0,ZRVC,"['z', 'r']",False,"[2.550445499829948, 3.015037899836898]","[0.23445029999129474, 0.22711049998179078]",639051,001,2024-11-17_15h10.11.700,PartialReportMethod,2024.1.5,None,2024-11-17 15h10.19.181379 +0530,
3,0,3,0,41.28873909986578,,,,,,,,,41.27060669986531,41.28873909986578,41.78432899992913,41.801169799873605,42.28503569983877,42.2692869999446,42.26932379999198,47.27432249998674,None,2,JEMR,None,False,,,639051,001,2024-11-17_15h10.11.700,PartialReportMethod,2024.1.5,None,2024-11-17 15h10.19.181379 +0530,
4,0,4,0,47.29219860001467,,,,,,,,,47.27623049984686,47.29219860001467,47.79075149982236,47.8073066000361,48.29156049992889,48.276060099946335,48.27609879989177,53.28010559990071,"['j', 'j', 'i', 'u']",2,JJIU,"['j', 'j', 'i', 'u']",False,"[1.3384253999684006, 1.5322048999369144, 1.7655416999477893, 2.172895499970764]","[0.11108359997160733, 0.15523140016011894, 0.1462256999220699, 0.1714361000340432]",639051,001,2024-11-17_15h10.11.700,PartialReportMethod,2024.1.5,None,2024-11-17 15h10.19.181379 +0530,
5,0,5,0,53.29822429991327,,,,,,,,,53.28270830004476,53.29822429991327,53.78009729995392,53.813939299900085,54.28148019989021,54.26604549982585,54.26607949985191,59.27066199993715,"['c', 's']",2,CSVE,"['c', 's']",False,"[3.467795800184831, 4.013725400203839]","[0.21223619999364018, 0.23013159981928766]",639051,001,2024-11-17_15h10.11.700,PartialReportMethod,2024.1.5,None,2024-11-17 15h10.19.181379 +0530,
6,0,6,0,59.2865297999233,,,,,,,,,59.272910699946806,59.2865297999233,59.78762059984729,59.78762059984729,60.2881205000449,60.272503699874505,60.272538600023836,65.27771179983392,"['l', 'e']",1,LEXI,"['l', 'e']",False,"[2.861536300042644, 3.4442806001752615]","[0.220628899987787, 0.24895829986780882]",639051,001,2024-11-17_15h10.11.700,PartialReportMethod,2024.1.5,None,2024-11-17 15h10.19.181379 +0530,
7,0,7,0,65.29433949990198,,,,,,,,,65.28032859996893,65.29433949990198,65.77701610000804,65.79410759988241,66.27782509988174,66.26225339993834,66.2622878998518,71.26774159981869,"['i', 'j']",1,IJDV,"['i', 'j']",False,"[0.9798673999030143, 1.3490911999251693]","[0.20117169991135597, 0.1630814999807626]",639051,001,2024-11-17_15h10.11.700,PartialReportMethod,2024.1.5,None,2024-11-17 15h10.19.181379 +0530,
8,0,8,0,71.2879377999343,,,,,,,,,71.27038030000404,71.2879377999343,71.78375599998981,71.80082020000555,72.28417410003021,72.26875479985029,72.26878759986721,77.2740199000109,"['p', 'a']",2,PAEK,"['p', 'a']",False,"[0.943942700047046, 1.3510420001111925]","[0.2998846999835223, 0.26343640009872615]",639051,001,2024-11-17_15h10.11.700,PartialReportMethod,2024.1.5,None,2024-11-17 15h10.19.181379 +0530,
9,0,9,0,77.28941199998371,,,,,,,,,77.27529769996181,77.28941199998371,77.79079779982567,77.79079779982567,78.2910432999488,78.275878299959,78.27591389999725,83.27995570003986,"['l', 'i']",2,LIZR,"['l', 'i']",False,"[0.7095443999860436, 1.4043588999193162]","[0.1914478000253439, 0.1931504001840949]",639051,001,2024-11-17_15h10.11.700,PartialReportMethod,2024.1.5,None,2024-11-17 15h10.19.181379 +0530,
10,0,10,0,83.29694120003842,,,,,,,,,83.28265189984813,83.29694120003842,83.78043149993755,83.79752709995955,84.28070989996195,84.2651972998865,84.26522749988362,89.27071890002117,"['w', 'a']",1,WAKE,"['w', 'a']",False,"[2.5277154999785125, 3.265380899887532]","[0.2207599999383092, 0.2654830999672413]",639051,001,2024-11-17_15h10.11.700,PartialReportMethod,2024.1.5,None,2024-11-17 15h10.19.181379 +0530,
11,0,11,0,89.29157039988786,,,,,,,,,89.27336569991894,89.29157039988786,89.78659070003778,89.80339869996533,90.28791039995849,90.27216759999283,90.27220819983631,95.27728359983303,"['b', 'o']",0,BORB,"['b', 'o']",False,"[1.6463213998358697, 2.177727999864146]","[0.18478920008055866, 0.1900903000496328]",639051,001,2024-11-17_15h10.11.700,PartialReportMethod,2024.1.5,None,2024-11-17 15h10.19.181379 +0530,
12,0,12,0,95.29755180003121,,,,,,,,,95.28012599982321,95.29755180003121,95.7769033999648,95.81040019984357,96.2778846998699,96.26158749987371,96.26161769987084,101.26700979983434,"['g', 'f']",1,GCAJ,"['g', 'f']",False,"[3.3233475999441, 3.8025193999055773]","[0.2570263999514282, 0.2425830999854952]",639051,001,2024-11-17_15h10.11.700,PartialReportMethod,2024.1.5,None,2024-11-17 15h10.19.181379 +0530,
13,0,13,0,101.28373599983752,,,,,,,,,101.26961299986579,101.28373599983752,101.78335369983688,101.78335369983688,102.28390899999067,102.26769989985041,102.26773219997995,107.2736896998249,"['o', 'f']",1,OFCO,"['o', 'f']",False,"[2.1266333998646587, 2.514015199849382]","[0.24030730011872947, 0.2724951000418514]",639051,001,2024-11-17_15h10.11.700,PartialReportMethod,2024.1.5,None,2024-11-17 15h10.19.181379 +0530,
14,0,14,0,107.29170229984447,,,,,,,,,107.27637239987962,107.29170229984447,107.79093119991012,107.79093119991012,108.29062889982015,108.2753426998388,108.275377899874,113.27890029991977,"['s', 'v']",1,SVBC,"['s', 'v']",False,"[1.5672734000254422, 2.007492900127545]","[0.2920195001643151, 0.24387119989842176]",639051,001,2024-11-17_15h10.11.700,PartialReportMethod,2024.1.5,None,2024-11-17 15h10.19.181379 +0530,
15,0,15,0,113.29603289999068,,,,,,,,,113.28019690001383,113.29603289999068,113.78011149982922,113.79661899991333,114.28063889988698,114.26463989983313,114.26467199996114,119.2708343998529,"['a', 'p', 'r', 'p']",0,RPZQ,"['a', 'p', 'r', 'p']",False,"[1.2472115999553353, 1.6799326001200825, 2.5163529999554157, 3.2005798001773655]","[0.24475780013017356, 0.24779709987342358, 0.2605411000549793, 0.2375536998733878]",639051,001,2024-11-17_15h10.11.700,PartialReportMethod,2024.1.5,None,2024-11-17 15h10.19.181379 +0530,
16,0,16,0,119.28752919984981,,,,,,,,,119.27401609998196,119.28752919984981,119.78751039993949,119.78751039993949,120.28753209998831,120.27173609985039,120.27176959998906,125.27714499994181,"['z', 'i']",2,AGOH,"['z', 'i']",False,"[2.3659039000049233, 2.8061289999168366]","[0.26427069981582463, 0.19856339995749295]",639051,001,2024-11-17_15h10.11.700,PartialReportMethod,2024.1.5,None,2024-11-17 15h10.19.181379 +0530,
17,0,17,0,125.2935589000117,,,,,,,,,125.27988060005009,125.2935589000117,125.79324989998713,125.79324989998713,,126.27758809993975,126.27763079991564,131.28280679997988,"['p', 'c']",2,PYHZ,"['p', 'c']",False,"[1.657690899912268, 1.9720960999839008]","[0.2997358001302928, 0.29665490007027984]",639051,001,2024-11-17_15h10.11.700,PartialReportMethod,2024.1.5,None,2024-11-17 15h10.19.181379 +0530,
18,0,18,0,131.3009265998844,,,,,,,,,131.28522049984895,131.3009265998844,131.78330049989745,131.79992030002177,132.28394220001064,132.268664999865,132.2687078998424,137.2734037998598,"['c', 'p']",0,CCPT,"['c', 'p']",False,"[1.5243410000111908, 1.9447558000683784]","[0.23457619990222156, 0.2261329998727888]",639051,001,2024-11-17_15h10.11.700,PartialReportMethod,2024.1.5,None,2024-11-17 15h10.19.181379 +0530,
19,0,19,0,137.29103869991377,,,,,,,,,137.27591389999725,137.29103869991377,137.79001699993387,137.80673019983806,138.29030189989135,138.27429169998504,138.27431569993496,143.2797709000297,"['u', 'a']",2,UAVL,"['u', 'a']",False,"[1.0434618000872433, 1.3056377999018878]","[0.2102546999230981, 0.2769716000184417]",639051,001,2024-11-17_15h10.11.700,PartialReportMethod,2024.1.5,None,2024-11-17 15h10.19.181379 +0530,
20,0,20,0,143.29951929999515,,,,,,,,,143.2825505998917,143.29951929999515,143.78001350001432,143.81309710000642,144.2803425998427,144.2651426999364,144.26517619984224,149.27053359989077,"['u', 'g']",0,NUDG,"['u', 'g']",False,"[0.9897829999681562, 1.3408755999989808]","[0.19820220000110567, 0.23849899997003376]",639051,001,2024-11-17_15h10.11.700,PartialReportMethod,2024.1.5,None,2024-11-17 15h10.19.181379 +0530,
21,0,21,0,149.28784989984706,,,,,,,,,149.27325619990006,149.28784989984706,149.7868500999175,149.7868500999175,150.28701119986363,150.27153709996492,150.27157009998336,155.27671849983744,"['p', 'p']",1,PPQZ,"['p', 'p']",False,"[1.1095358000602573, 1.4726094000507146]","[0.18102209991775453, 0.20788230001926422]",639051,001,2024-11-17_15h10.11.700,PartialReportMethod,2024.1.5,None,2024-11-17 15h10.19.181379 +0530,
22,0,22,0,155.29689639993012,,,,,,,,,155.27937979996204,155.29689639993012,155.77642520004883,155.80988539988175,156.27701530000195,156.2614551000297,156.26148949982598,161.2668127999641,"['x', 'd']",0,XDBS,"['x', 'd']",False,"[2.0161695000715554, 2.470408600056544]","[0.22891830001026392, 0.27344919997267425]",639051,001,2024-11-17_15h10.11.700,PartialReportMethod,2024.1.5,None,2024-11-17 15h10.19.181379 +0530,
23,0,23,0,161.28312919987366,,,,,,,,,161.269835999934,161.28312919987366,161.7828448000364,161.7828448000364,162.28329539997503,162.26819169986993,162.26822729990818,167.27216880000196,"['m', 'k']",0,MKFC,"['m', 'k']",False,"[1.4311311000492424, 1.7976562001276761]","[0.22804870014078915, 0.21294109988957644]",639051,001,2024-11-17_15h10.11.700,PartialReportMethod,2024.1.5,None,2024-11-17 15h10.19.181379 +0530,
24,0,24,0,167.28922459995374,,,,,,,,,167.2735271998681,167.28922459995374,167.78973299986683,167.78973299986683,168.2903244998306,168.274852699833,168.2748971998226,173.27921239985153,"['p', 'a']",1,PAQB,"['p', 'a']",False,"[1.0006967999506742, 1.2040450999047607]","[0.2600048000458628, 0.2492092999164015]",639051,001,2024-11-17_15h10.11.700,PartialReportMethod,2024.1.5,None,2024-11-17 15h10.19.181379 +0530,
25,0,25,0,173.2969654998742,,,,,,,,,173.28205679985695,173.2969654998742,173.77960340003483,173.79631030000746,174.28026599995792,174.26423939992674,174.26427429984324,179.27023559994996,"['f', 'a']",2,FAPX,"['f', 'a']",False,"[1.6231103998143226, 2.4642541999928653]","[0.23657479998655617, 0.25655389996245503]",639051,001,2024-11-17_15h10.11.700,PartialReportMethod,2024.1.5,None,2024-11-17 15h10.19.181379 +0530,
26,0,26,0,179.28869549999945,,,,,,,,,179.27302409987897,179.28869549999945,179.78578589996323,179.8028243998997,180.28707750001922,180.271329900017,180.2713652998209,185.2767672999762,None,0,VOGS,None,False,,,639051,001,2024-11-17_15h10.11.700,PartialReportMethod,2024.1.5,None,2024-11-17 15h10.19.181379 +0530,
27,0,27,0,185.29631859995425,,,,,,,,,185.2784855000209,185.29631859995425,185.7926715000067,185.81015579984523,186.2933376999572,186.2779131999705,186.2779492000118,191.28249399992637,"['e', 'a']",2,EAAB,"['e', 'a']",False,"[1.074075800133869, 1.899849700042978]","[0.21504439995624125, 0.3027524999342859]",639051,001,2024-11-17_15h10.11.700,PartialReportMethod,2024.1.5,None,2024-11-17 15h10.19.181379 +0530,
28,0,28,0,191.30014519998804,,,,,,,,,191.28552210005,191.30014519998804,191.7827122998424,191.79950989992358,192.28322259988636,192.26781190000474,192.26784790004604,197.27332279994152,"['j', 'k']",2,JKIN,"['j', 'k']",False,"[0.4236673000268638, 1.2117667000275105]","[0.2004311999771744, 0.206482500070706]",639051,001,2024-11-17_15h10.11.700,PartialReportMethod,2024.1.5,None,2024-11-17 15h10.19.181379 +0530,
29,0,29,0,197.29091460001655,,,,,,,,,197.27601759997196,197.29091460001655,197.78850069991313,197.78850069991313,198.28995130001567,198.27468799985945,198.2747235998977,203.27884759986773,"['f', 'j', 't']",0,JGMB,"['f', 'j', 't']",False,"[1.3446798999793828, 2.5333847000729293, 2.836369200143963]","[0.13096990017220378, 0.17847939999774098, 0.2374121998436749]",639051,001,2024-11-17_15h10.11.700,PartialReportMethod,2024.1.5,None,2024-11-17 15h10.19.181379 +0530,
30,0,30,0,203.29666320001706,,,,,,,,,203.2812069999054,203.29666320001706,203.77937550004572,203.7958537999075,204.28002499998547,204.26459589996375,204.26462929998524,209.26971170003526,"['w', 't']",1,WTEQ,"['w', 't']",False,"[0.7031690001022071, 1.1953358000610024]","[0.26062869979068637, 0.23327600001357496]",639051,001,2024-11-17_15h10.11.700,PartialReportMethod,2024.1.5,None,2024-11-17 15h10.19.181379 +0530,
31,0,31,0,209.28699789987877,,,,,,,,,209.27240739995614,209.28699789987877,209.78656079992652,209.78656079992652,210.2864893998485,210.2713081999682,210.27134139998816,215.27624789997935,"['q', 'x']",2,QXAN,"['q', 'x']",False,"[1.429158299928531, 2.2950378998648375]","[0.2538508998695761, 0.29001070000231266]",639051,001,2024-11-17_15h10.11.700,PartialReportMethod,2024.1.5,None,2024-11-17 15h10.19.181379 +0530,
32,0,32,0,215.29730380000547,,,,,,,,,215.27883379999548,215.29730380000547,215.7930059998762,215.80935469991527,216.29314680001698,216.27763679996133,216.27767540002242,221.28165759984404,"['e', 'y']",1,EYGY,"['e', 'y']",False,"[0.8764641000889242, 1.2906595999374986]","[0.265061599900946, 0.20806750003248453]",639051,001,2024-11-17_15h10.11.700,PartialReportMethod,2024.1.5,None,2024-11-17 15h10.19.181379 +0530,
33,0,33,0,221.29822640004568,,,,,,,,,221.2841550000012,221.29822640004568,221.78237999998964,221.79916069982573,222.28301390004344,222.26758629991673,222.26762739988044,227.27307699993253,"['j', 'd']",2,JDVU,"['j', 'd']",False,"[0.9192346001509577, 2.050490700174123]","[0.25797649985179305, 0.19813389983028173]",639051,001,2024-11-17_15h10.11.700,PartialReportMethod,2024.1.5,None,2024-11-17 15h10.19.181379 +0530,
34,0,34,0,227.29056069999933,,,,,,,,,227.2762412999291,227.29056069999933,227.78898569988087,227.8061481998302,228.28991489997134,228.27421179995872,228.27424809988588,233.27863979991525,"['i', 'b']",2,IBHX,"['i', 'b']",False,"[0.7125022001564503, 1.117506799986586]","[0.25364340003579855, 0.1943859001621604]",639051,001,2024-11-17_15h10.11.700,PartialReportMethod,2024.1.5,None,2024-11-17 15h10.19.181379 +0530,
35,0,35,0,233.29599539982155,,,,,,,,,233.28175309998915,233.29599539982155,233.7782515999861,233.81240509985946,234.2795027999673,234.2640531999059,234.26408779993653,239.2693177999463,"['t', 't']",0,TTXF,"['t', 't']",False,"[1.4054682001005858, 1.7493165999185294]","[0.21843219990842044, 0.254280700115487]",639051,001,2024-11-17_15h10.11.700,PartialReportMethod,2024.1.5,None,2024-11-17 15h10.19.181379 +0530,
36,0,36,0,239.28650089981966,,,,,,,,,239.27200630004518,239.28650089981966,239.78634470002726,239.78634470002726,240.2865030998364,240.27071850001812,240.27075130003504,245.27584899985231,"['w', 'p']",2,WPZL,"['w', 'p']",False,"[0.703703299863264, 1.1672776998020709]","[0.23998529999516904, 0.26399860018864274]",639051,001,2024-11-17_15h10.11.700,PartialReportMethod,2024.1.5,None,2024-11-17 15h10.19.181379 +0530,
37,0,37,0,245.29607899999246,,,,,,,,,245.2786160998512,245.29607899999246,245.7921980000101,245.80926049989648,246.29274679999799,246.2766137998551,246.27663959981874,251.28188489982858,"['g', 'g']",0,GCOO,"['g', 'g']",False,"[1.1931755000259727, 1.4746322999708354]","[0.19671109993942082, 0.22606049990281463]",639051,001,2024-11-17_15h10.11.700,PartialReportMethod,2024.1.5,None,2024-11-17 15h10.19.181379 +0530,
38,0,38,0,251.29838109994307,,,,,,,,,251.28459489997476,251.29838109994307,251.78199189994484,251.79901469987817,252.28291369997896,252.26711130002514,252.26716409996152,257.2730248000007,"['l', 'n']",2,LKIG,"['l', 'n']",False,"[0.9992489002179354, 1.50572090013884]","[0.26763029978610575, 0.23621949995867908]",639051,001,2024-11-17_15h10.11.700,PartialReportMethod,2024.1.5,None,2024-11-17 15h10.19.181379 +0530,
39,0,39,0,257.29098859988153,,,,,,,,,257.2758255000226,257.29098859988153,257.7886854999233,257.80576390004717,258.2894172000233,258.27384769986384,258.2738798998762,263.27847220003605,"['w', 'b']",0,MWFS,"['w', 'b']",False,"[1.486832199851051, 1.924364399863407]","[0.2691347000654787, 0.2586813000962138]",639051,001,2024-11-17_15h10.11.700,PartialReportMethod,2024.1.5,None,2024-11-17 15h10.19.181379 +0530,
40,0,40,0,263.2962950998917,,,,,,,,,263.2815896999091,263.2962950998917,263.77849389985204,263.8122707998846,264.2794227998238,264.26349889999256,264.2635317998938,269.26901519997045,"['g', 'p']",2,GPSP,"['g', 'p']",False,"[1.201395799871534, 1.670159799978137]","[0.23293350008316338, 0.20722860004752874]",639051,001,2024-11-17_15h10.11.700,PartialReportMethod,2024.1.5,None,2024-11-17 15h10.19.181379 +0530,
41,0,41,0,269.2860562999267,,,,,,,,,269.27150000003166,269.2860562999267,269.7857007998973,269.7857007998973,270.28620680002496,270.27069899998605,270.27072979998775,275.27654079999775,"['o', 'd']",1,ODNP,"['o', 'd']",False,"[0.8912382000125945, 1.1932965000160038]","[0.25419509992934763, 0.25874499999918044]",639051,001,2024-11-17_15h10.11.700,PartialReportMethod,2024.1.5,None,2024-11-17 15h10.19.181379 +0530,
42,0,42,0,275.2962690999266,,,,,,,,,275.2812768998556,275.2962690999266,275.7920065999497,275.8089874999132,276.29255179991014,276.27714429982007,276.27717799996026,281.28160579991527,"['j', 'x']",1,NNHF,"['j', 'x']",False,"[0.9413246000185609, 1.3910198998637497]","[0.17597049986943603, 0.2846280001103878]",639051,001,2024-11-17_15h10.11.700,PartialReportMethod,2024.1.5,None,2024-11-17 15h10.19.181379 +0530,
43,0,43,0,281.2989460998215,,,,,,,,,281.2841329998337,281.2989460998215,281.7818089998327,281.79858659999445,282.2828293000348,282.26696219993755,282.2669933999423,287.2721889000386,"['b', 'f']",1,GOLA,"['b', 'f']",False,"[1.9656083001755178, 2.5262419001664966]","[0.2274048998951912, 0.2676482000388205]",639051,001,2024-11-17_15h10.11.700,PartialReportMethod,2024.1.5,None,2024-11-17 15h10.19.181379 +0530,
44,0,44,0,287.2905744998716,,,,,,,,,287.2748195999302,287.2905744998716,287.7881270998623,287.8046422000043,288.2889282000251,288.2737320999149,288.2737685998436,293.2781138999853,"['x', 'c']",0,XCFA,"['x', 'c']",False,"[1.250886800000444, 1.7315573999658227]","[0.27000879985280335, 0.2869748999364674]",639051,001,2024-11-17_15h10.11.700,PartialReportMethod,2024.1.5,None,2024-11-17 15h10.19.181379 +0530,
45,0,45,0,293.2949804998934,,,,,,,,,293.2808608999476,293.2949804998934,293.77823149994947,293.795343299862,294.2790230999235,294.26367579982616,294.2637114999816,299.2689270998817,"['g', 'p']",2,GATP,"['g', 'p']",False,"[0.7815861001145095, 1.1639563001226634]","[0.2415892998687923, 0.3122250000014901]",639051,001,2024-11-17_15h10.11.700,PartialReportMethod,2024.1.5,None,2024-11-17 15h10.19.181379 +0530,
46,0,46,0,299.28620369988494,,,,,,,,,299.271664199885,299.28620369988494,299.7851706999354,299.7851706999354,300.2854522999842,300.2707952000201,300.2708346999716,305.2754847998731,"['e', 't']",2,EXCG,"['e', 't']",False,"[1.440033399965614, 2.220563600072637]","[0.31509330007247627, 0.2804375998675823]",639051,001,2024-11-17_15h10.11.700,PartialReportMethod,2024.1.5,None,2024-11-17 15h10.19.181379 +0530,
47,0,47,0,305.2932674998883,,,,,,,,,305.2782433000393,305.2932674998883,305.79180689994246,305.8084899999667,306.2923858000431,306.2768415999599,306.2768742998596,311.28131300001405,"['d', 't']",0,DTGV,"['d', 't']",False,"[1.0027546000201255, 1.4274977999739349]","[0.24139710003510118, 0.24530930002219975]",639051,001,2024-11-17_15h10.11.700,PartialReportMethod,2024.1.5,None,2024-11-17 15h10.19.181379 +0530,
48,0,48,0,311.29928799998015,,,,,,,,,311.2839388998691,311.29928799998015,311.78166430001147,311.7983105999883,312.28242529998533,312.26702709984966,312.2670628000051,317.27224039984867,"['h', 'd']",1,HDYT,"['h', 'd']",False,"[1.5330471000634134, 1.8305707999970764]","[0.24702639994211495, 0.24968690006062388]",639051,001,2024-11-17_15h10.11.700,PartialReportMethod,2024.1.5,None,2024-11-17 15h10.19.181379 +0530,
49,0,49,0,317.289120899979,,,,,,,,,317.27497959998436,317.289120899979,317.7884571000468,317.7884571000468,318.2893232998904,318.2736180999782,318.27366319997236,323.2777523000259,"['m', 'r']",0,MVYA,"['m', 'r']",False,"[1.2001881999894977, 1.6309970000293106]","[0.27191970008425415, 0.2610973999835551]",639051,001,2024-11-17_15h10.11.700,PartialReportMethod,2024.1.5,None,2024-11-17 15h10.19.181379 +0530,
50,0,50,0,323.29584219981916,,,,,,,,,323.2803201000206,323.29584219981916,323.77819609991275,323.7949685000349,324.2792948000133,324.26353639992885,324.2635838999413,329.2687134000007,"['j', 'j']",1,JJIJ,"['j', 'j']",False,"[0.9365914000663906, 1.1630822999868542]","[0.12306619994342327, 0.1377006999682635]",639051,001,2024-11-17_15h10.11.700,PartialReportMethod,2024.1.5,None,2024-11-17 15h10.19.181379 +0530,
51,0,51,0,329.28567219991237,,,,,,,,,329.27144229994155,329.28567219991237,329.78495529992506,329.78495529992506,330.28542570001446,330.2699903999455,330.2700261999853,335.2754858999979,"['o', 'f']",1,OKYB,"['o', 'f']",False,"[1.248626000015065, 1.580846400000155]","[0.25661109993234277, 0.3218545999843627]",639051,001,2024-11-17_15h10.11.700,PartialReportMethod,2024.1.5,None,2024-11-17 15h10.19.181379 +0530,
52,0,52,0,335.2919244999066,,,,,,,,,335.27816200000234,335.2919244999066,335.7916090998333,335.7916090998333,336.2926252000034,336.27638659998775,336.27642180002294,341.28118589986116,"['y', 'i']",1,YFOI,"['y', 'i']",False,"[1.1851596999913454, 1.5204552998766303]","[0.21685929992236197, 0.23417220008559525]",639051,001,2024-11-17_15h10.11.700,PartialReportMethod,2024.1.5,None,2024-11-17 15h10.19.181379 +0530,
53,0,53,0,341.2995331999846,,,,,,,,,341.2839541998692,341.2995331999846,341.7812616999727,341.81411070004106,342.28187810000964,342.26617669989355,342.26621060003527,347.2720257998444,"['m', 'j']",1,MJYA,"['m', 'j']",False,"[1.0937731999438256, 1.509148000041023]","[0.22440259996801615, 0.21821839991025627]",639051,001,2024-11-17_15h10.11.700,PartialReportMethod,2024.1.5,None,2024-11-17 15h10.19.181379 +0530,
54,0,54,0,347.2919764998369,,,,,,,,,347.27480469993316,347.2919764998369,347.7879444998689,347.80466919997707,348.2885282000061,348.2728609999176,348.27289479994215,353.27787059987895,['t'],2,TQER,['t'],False,[1.6676022000610828],[0.2670160001143813],639051,001,2024-11-17_15h10.11.700,PartialReportMethod,2024.1.5,None,2024-11-17 15h10.19.181379 +0530,
55,0,55,0,353.29534829990007,,,,,,,,,353.2805234999396,353.29534829990007,353.77813109988347,353.7947274998296,354.27758300001733,354.2625023999717,354.2625308998395,359.2680422998965,"['h', 'f']",2,HDAV,"['h', 'f']",False,"[0.9247127999551594, 1.420763900037855]","[0.21129380003549159, 0.2605280000716448]",639051,001,2024-11-17_15h10.11.700,PartialReportMethod,2024.1.5,None,2024-11-17 15h10.19.181379 +0530,
56,0,56,0,359.28543189982884,,,,,,,,,359.2706611000467,359.28543189982884,359.78462049993686,359.78462049993686,360.28495709993877,360.26969800004736,360.26972800004296,365.2747082998976,None,0,TCKO,None,False,,,639051,001,2024-11-17_15h10.11.700,PartialReportMethod,2024.1.5,None,2024-11-17 15h10.19.181379 +0530,
57,0,57,0,365.29260399984196,,,,,,,,,365.2763622000348,365.29260399984196,365.79119320004247,365.80790529982187,,366.2780394000001,366.2780748999212,371.28121439996175,"['d', 'o']",0,DOCO,"['d', 'o']",False,"[1.3091045999899507, 1.6784211997874081]","[0.2626685998402536, 0.2763171000406146]",639051,001,2024-11-17_15h10.11.700,PartialReportMethod,2024.1.5,None,2024-11-17 15h10.19.181379 +0530,
58,0,58,0,371.29955079988576,,,,,,,,,371.28374690003693,371.29955079988576,371.781507199863,371.8144943998195,372.2818940000143,372.2665667999536,372.2666003999766,377.2719308999367,"['u', 'n']",1,UHLV,"['u', 'n']",False,"[1.3898181000258774, 1.7290630000643432]","[0.19591940008103848, 0.2343394998461008]",639051,001,2024-11-17_15h10.11.700,PartialReportMethod,2024.1.5,None,2024-11-17 15h10.19.181379 +0530,
59,0,59,0,377.2918145000003,,,,,,,,,377.27443039999343,377.2918145000003,377.7884890998248,377.80466739996336,378.2882603998296,378.2731031998992,378.27313650003634,383.27740149991587,"['i', 'j']",0,IJUS,"['i', 'j']",False,"[1.1102847999427468, 1.4465783000923693]","[0.3431597000453621, 0.22943479986861348]",639051,001,2024-11-17_15h10.11.700,PartialReportMethod,2024.1.5,None,2024-11-17 15h10.19.181379 +0530,
60,0,60,0,383.29733869992197,,,,,,,,,383.2809515998233,383.29733869992197,383.7782077998854,383.81135159987025,384.2786866999231,384.26281769992784,384.26285199983977,389.2681483000051,"['y', 'm']",0,FMIW,"['y', 'm']",False,"[0.7595569000113755, 1.331628300016746]","[0.19152899994514883, 0.2434057998470962]",639051,001,2024-11-17_15h10.11.700,PartialReportMethod,2024.1.5,None,2024-11-17 15h10.19.181379 +0530,
61,0,61,0,389.2854831998702,,,,,,,,,389.2709282999858,389.2854831998702,389.7842365000397,389.8009182999376,390.2854448999278,390.26883849990554,390.26886149984784,395.2746428998653,"['m', 'c', 'c', 'a']",0,MCCA,"['m', 'c', 'c', 'a']",False,"[0.8401883998885751, 1.2748811999335885, 1.4941871999762952, 2.8353258999995887]","[0.16868130001239479, 0.134024600032717, 0.23794039990752935, 0.3009156999178231]",639051,001,2024-11-17_15h10.11.700,PartialReportMethod,2024.1.5,None,2024-11-17 15h10.19.181379 +0530,
62,0,62,0,395.29494369984604,,,,,,,,,395.27845250000246,395.29494369984604,395.79086649999954,395.8080726999324,396.293229999952,396.27670529996976,396.27673839987256,401.28060719999485,"['a', 'o', 'h', 'x']",0,AOHX,"['a', 'o', 'h', 'x']",False,"[1.207919100066647, 1.5788748001214117, 1.8965177000500262, 2.4206006000749767]","[0.2337070000357926, 0.31455340003594756, 0.18372710002586246, 0.2573903000447899]",639051,001,2024-11-17_15h10.11.700,PartialReportMethod,2024.1.5,None,2024-11-17 15h10.19.181379 +0530,
63,0,63,0,401.300242099911,,,,,,,,,401.2836772999726,401.300242099911,401.78093959996477,401.81532739987597,402.2830662999768,402.2668452998623,402.26687920000404,407.27161960001104,"['e', 'h', 'f', 'r']",1,EHFR,"['e', 'h', 'f', 'r']",False,"[1.1448788000270724, 1.5789132001809776, 1.8627538001164794, 2.161197000183165]","[0.22681839996948838, 0.191490099998191, 0.2073198000434786, 0.23496589995920658]",639051,001,2024-11-17_15h10.11.700,PartialReportMethod,2024.1.5,None,2024-11-17 15h10.19.181379 +0530,
64,0,64,0,407.28796919994056,,,,,,,,,407.2745786998421,407.28796919994056,407.78721119998954,407.78721119998954,408.2880998000037,408.2728040998336,408.2728377999738,413.2772070998326,"['f', 'e', 'm', 'g']",0,FEMG,"['f', 'e', 'm', 'g']",False,"[1.006505399942398, 1.3985802999231964, 1.8965355998370796, 2.2696022999007255]","[0.23647830006666481, 0.22451009997166693, 0.233449200168252, 0.23657530010677874]",639051,001,2024-11-17_15h10.11.700,PartialReportMethod,2024.1.5,None,2024-11-17 15h10.19.181379 +0530,
65,0,65,0,413.29596149991266,,,,,,,,,413.27999219996855,413.29596149991266,413.7771808998659,413.8114344999194,414.2780623999424,414.2631037000101,414.2631473999936,419.26801600004546,None,2,HAST,None,False,,,639051,001,2024-11-17_15h10.11.700,PartialReportMethod,2024.1.5,None,2024-11-17 15h10.19.181379 +0530,
66,0,66,0,419.2849369000178,,,,,,,,,419.26991069992073,419.2849369000178,419.7844004998915,419.80100669991225,420.28462209994905,420.2696976000443,420.2697407999076,425.2749939998612,None,1,JPNU,None,False,,,639051,001,2024-11-17_15h10.11.700,PartialReportMethod,2024.1.5,None,2024-11-17 15h10.19.181379 +0530,
67,0,67,0,425.2929765000008,,,,,,,,,425.27726470003836,425.2929765000008,425.79113889997825,425.80749169993214,426.29136739997193,426.2771154998336,426.2771498998627,431.2797220000066,None,2,NBBL,None,False,,,639051,001,2024-11-17_15h10.11.700,PartialReportMethod,2024.1.5,None,2024-11-17 15h10.19.181379 +0530,
68,0,68,0,431.29674939997494,,,,,,,,,431.2807058999315,431.29674939997494,431.781255699927,431.79797700000927,432.28129129996523,432.2660010999534,432.26627089991234,437.2713668998331,"['a', 'n', 's', 'i']",2,ANSI,"['a', 'n', 's', 'i']",False,"[0.5202638001646847, 0.8831495000049472, 1.232455400051549, 1.5465088000055403]","[0.263204799965024, 0.2014211001805961, 0.25000849994830787, 0.281934899976477]",639051,001,2024-11-17_15h10.11.700,PartialReportMethod,2024.1.5,None,2024-11-17 15h10.19.181379 +0530,
69,0,69,0,437.28981369989924,,,,,,,,,437.2747212999966,437.28981369989924,437.78751099994406,437.804419899825,438.2883138000034,438.2725037999917,438.27253649989143,443.277562599862,None,0,EJGB,None,False,,,639051,001,2024-11-17_15h10.11.700,PartialReportMethod,2024.1.5,None,2024-11-17 15h10.19.181379 +0530,
70,0,70,0,443.2956278999336,,,,,,,,,443.28005459997803,443.2956278999336,443.77749549993314,443.80991229997016,444.2775291998405,444.2631206999067,444.26316539989784,449.267546299845,"['m', 'n', 'o', 'i']",1,MNOI,"['m', 'n', 'o', 'i']",False,"[1.2355275999289006, 1.5448370000813156, 1.9019766000565141, 2.6336540000047535]","[0.19142960011959076, 0.18794819992035627, 0.29258379992097616, 0.2332079999614507]",639051,001,2024-11-17_15h10.11.700,PartialReportMethod,2024.1.5,None,2024-11-17 15h10.19.181379 +0530,
71,0,71,0,449.2873855000362,,,,,,,,,449.27138299983926,449.2873855000362,449.7836217000149,449.8007286998909,450.28475690004416,450.26914449990727,450.26917789992876,455.27449289988726,None,2,WWIM,None,False,,,639051,001,2024-11-17_15h10.11.700,PartialReportMethod,2024.1.5,None,2024-11-17 15h10.19.181379 +0530,
72,0,72,0,455.29202419985086,,,,,,,,,455.2766163998749,455.29202419985086,455.79017489985563,455.80768970004283,456.2911910000257,456.27570219989866,456.27573490003124,461.28025950002484,None,1,WNNK,None,False,,,639051,001,2024-11-17_15h10.11.700,PartialReportMethod,2024.1.5,None,2024-11-17 15h10.19.181379 +0530,
73,0,73,0,461.29757029982284,,,,,,,,,461.28271639999,461.29757029982284,461.78002579999156,461.79696589987725,462.2814938998781,462.2654368998483,462.26547809992917,467.27062599989586,"['r', 'p']",0,PPJW,"['r', 'p']",False,"[1.5960272999946028, 1.9974871999584138]","[0.2512216998729855, 0.27985720010474324]",639051,001,2024-11-17_15h10.11.700,PartialReportMethod,2024.1.5,None,2024-11-17 15h10.19.181379 +0530,
74,0,74,0,467.2887335999403,,,,,,,,,467.2732330998406,467.2887335999403,467.7870000000112,467.8037731000222,468.2879436998628,468.2731949998997,468.2732243000064,473.2770763998851,"['b', 'g', 'l', 'o']",0,BGLQ,"['b', 'g', 'l', 'o']",False,"[0.8696789999958128, 1.3167280000634491, 1.538656699936837, 1.8264661999419332]","[0.19477150007151067, 0.22119720000773668, 0.1836546000558883, 0.2705904000904411]",639051,001,2024-11-17_15h10.11.700,PartialReportMethod,2024.1.5,None,2024-11-17 15h10.19.181379 +0530,
75,0,75,0,473.29749300004914,,,,,,,,,473.27985999989323,473.29749300004914,473.777305399999,473.8104042999912,474.27759509999305,474.26289430004545,474.2629287999589,479.26707679987885,"['u', 'd', 'c', 'g']",2,GDCC,"['u', 'd', 'c', 'g']",False,"[0.8312617000192404, 1.2445882998872548, 1.7082231000531465, 2.071985899936408]","[0.16735769994556904, 0.2570327001158148, 0.24038759991526604, 0.25314319995231926]",639051,001,2024-11-17_15h10.11.700,PartialReportMethod,2024.1.5,None,2024-11-17 15h10.19.181379 +0530,
76,0,76,0,479.2839313999284,,,,,,,,,479.27001439989544,479.2839313999284,479.78334610001184,479.78334610001184,480.283888499951,480.26896789995953,480.2690002999734,485.27403239998966,None,2,MBRK,None,False,,,639051,001,2024-11-17_15h10.11.700,PartialReportMethod,2024.1.5,None,2024-11-17 15h10.19.181379 +0530,
77,0,77,0,485.2921034998726,,,,,,,,,485.27566549996845,485.2921034998726,485.79114149999805,485.8067292999476,486.29089099983685,486.27523140003905,486.2752616999205,491.2797248000279,"['i', 'l']",2,ILZT,"['i', 'l']",False,"[0.6255805999971926, 1.2365578999742866]","[0.24377420009113848, 0.18752770009450614]",639051,001,2024-11-17_15h10.11.700,PartialReportMethod,2024.1.5,None,2024-11-17 15h10.19.181379 +0530,
78,0,78,0,491.2978963998612,,,,,,,,,491.28290500002913,491.2978963998612,491.779404199915,491.81290369993076,492.2803599999752,492.26593169989064,492.2659662000369,497.27070879982784,"['h', 'a']",0,HCOQ,"['h', 'a']",False,"[0.54572349996306, 0.7589928999077529]","[0.2004758999682963, 0.2749588000588119]",639051,001,2024-11-17_15h10.11.700,PartialReportMethod,2024.1.5,None,2024-11-17 15h10.19.181379 +0530,
79,0,79,0,497.2887724000029,,,,,,,,,497.2732795998454,497.2887724000029,497.78751539997756,497.8033555999864,498.2875063000247,498.2717150999233,498.2717487998307,503.27739719999954,None,2,VKXD,None,False,,,639051,001,2024-11-17_15h10.11.700,PartialReportMethod,2024.1.5,None,2024-11-17 15h10.19.181379 +0530,
80,0,80,0,503.295676499838,,,,,,,,,503.27947989990935,503.295676499838,503.7761245998554,503.8099248998333,504.27700129989535,504.2620387999341,504.2620718998369,509.2665710998699,"['i', 'j']",0,YJIJ,"['i', 'j']",False,"[1.1010141000151634, 1.6331003000959754]","[0.2053994000889361, 0.23537770006805658]",639051,001,2024-11-17_15h10.11.700,PartialReportMethod,2024.1.5,None,2024-11-17 15h10.19.181379 +0530,
81,0,81,0,509.28516700002365,,,,,,,,,509.2699386999011,509.28516700002365,509.7831748998724,509.8000437999144,510.2849858000409,510.26840539998375,510.2684602998197,515.2741949998308,"['y', 'k']",2,XYKF,"['y', 'k']",False,"[2.2775051000062376, 2.876856000162661]","[0.20080710016191006, 0.24410859984345734]",639051,001,2024-11-17_15h10.11.700,PartialReportMethod,2024.1.5,None,2024-11-17 15h10.19.181379 +0530,
82,0,82,0,515.294089899864,,,,,,,,,515.2783704998437,515.294089899864,515.7901779999956,515.8065416000318,516.2910823998973,516.275642399909,516.2756729000248,521.2792697998229,"['d', 'm']",0,DMZR,"['d', 'm']",False,"[1.5699483000207692, 1.8632211000658572]","[0.26975400000810623, 0.25568309985101223]",639051,001,2024-11-17_15h10.11.700,PartialReportMethod,2024.1.5,None,2024-11-17 15h10.19.181379 +0530,
83,0,83,0,521.2991786999628,,,,,,,,,521.2827780998778,521.2991786999628,521.7798454000149,521.8130955998786,522.2806714999024,522.2658130000345,522.2658543998841,527.2705005998723,"['w', 'm', 'n']",1,WNYK,"['w', 'm', 'n']",False,"[1.0783858001232147, 1.544796000001952, 2.5626602999400347]","[0.24061099998652935, 0.29220489994622767, 0.31493170000612736]",639051,001,2024-11-17_15h10.11.700,PartialReportMethod,2024.1.5,None,2024-11-17 15h10.19.181379 +0530,
84,0,84,0,527.2905555998441,,,,,,,,,527.2742296999786,527.2905555998441,527.7863723000046,527.8034146998543,528.2874955998268,528.2721386998892,528.2721710000187,533.2776222999673,"['z', 'q']",2,QDZE,"['z', 'q']",False,"[1.2267967998050153, 1.994953399989754]","[0.29581390018574893, 0.31947079999372363]",639051,001,2024-11-17_15h10.11.700,PartialReportMethod,2024.1.5,None,2024-11-17 15h10.19.181379 +0530,
85,0,85,0,533.2978846000042,,,,,,,,,533.2806379999965,533.2978846000042,533.776794299949,533.8102177998517,534.2769863998983,534.2614370000083,534.2614700999111,539.2662984000053,"['l', 'm', 'l']",2,NLHN,"['l', 'm', 'l']",False,"[0.42084269993938506, 0.9915402000769973, 1.3003583999816328]","[0.22186480020172894, 0.2530070999637246, 0.24814380006864667]",639051,001,2024-11-17_15h10.11.700,PartialReportMethod,2024.1.5,None,2024-11-17 15h10.19.181379 +0530,
86,0,86,0,539.2882160998415,,,,,,,,,539.269742500037,539.2882160998415,539.7827844000421,539.7996530998498,540.2840738999657,540.268577599898,540.2686105000321,545.2735979999416,"['w', 'z']",1,GZKO,"['w', 'z']",False,"[1.8170447999145836, 2.395663500064984]","[0.17708760011009872, 0.31661689979955554]",639051,001,2024-11-17_15h10.11.700,PartialReportMethod,2024.1.5,None,2024-11-17 15h10.19.181379 +0530,
87,0,87,0,545.2917160999496,,,,,,,,,545.2762184999883,545.2917160999496,545.7897779999766,545.806803500047,546.2901886999607,546.2744642999023,546.2744990000501,551.2792741998564,"['y', 'j']",0,FKOQ,"['y', 'j']",False,"[2.1889299999456853, 2.5192587000783533]","[0.18072770000435412, 0.21236440003849566]",639051,001,2024-11-17_15h10.11.700,PartialReportMethod,2024.1.5,None,2024-11-17 15h10.19.181379 +0530,
88,0,88,0,551.2968444998842,,,,,,,,,551.2821909999475,551.2968444998842,551.7791848999914,551.7963562998921,552.2800387998577,552.2642642999999,552.2642973000184,557.2702365999576,"['i', 'j']",1,ILEQ,"['i', 'j']",False,"[0.6312293999362737, 1.0399327999912202]","[0.23617350007407367, 0.2375800998415798]",639051,001,2024-11-17_15h10.11.700,PartialReportMethod,2024.1.5,None,2024-11-17 15h10.19.181379 +0530,
89,0,89,0,557.28602699982,,,,,,,,,557.2727204000112,557.28602699982,557.786312900018,557.786312900018,558.2866303999908,558.2718032000121,558.2718376999255,563.2763131998945,"['p', 'j']",2,YTCX,"['p', 'j']",False,"[1.0838211998343468, 1.475263699889183]","[0.2925277000758797, 0.21426120004616678]",639051,001,2024-11-17_15h10.11.700,PartialReportMethod,2024.1.5,None,2024-11-17 15h10.19.181379 +0530,
90,0,90,0,563.2949699000455,,,,,,,,,563.2789783999324,563.2949699000455,563.7762768999673,563.8093286999501,564.2769837998785,564.2614313999657,564.2614674998913,569.266372299986,"['k', 'y']",2,KYMQ,"['k', 'y']",False,"[0.9449814001563936, 1.3392231999896467]","[0.20094789983704686, 0.18992950022220612]",639051,001,2024-11-17_15h10.11.700,PartialReportMethod,2024.1.5,None,2024-11-17 15h10.19.181379 +0530,
91,0,91,0,569.282861799933,,,,,,,,,569.2690560999326,569.282861799933,569.7824792000465,569.7824792000465,570.2833354000468,570.2681926998775,570.268228400033,575.2733173999004,"['r', 'm']",1,RMIB,"['r', 'm']",False,"[1.3509053001180291, 1.5843585999682546]","[0.269229699857533, 0.22375330002978444]",639051,001,2024-11-17_15h10.11.700,PartialReportMethod,2024.1.5,None,2024-11-17 15h10.19.181379 +0530,
92,0,92,0,575.2941079000011,,,,,,,,,575.2767439999152,575.2941079000011,575.7893162998371,575.8061311999336,576.2902051999699,576.2752290000208,576.275261899922,581.2784908998292,"['j', 'r']",1,YEAA,"['j', 'r']",False,"[1.4689865000545979, 1.8490321000572294]","[0.24027969990856946, 0.238861900055781]",639051,001,2024-11-17_15h10.11.700,PartialReportMethod,2024.1.5,None,2024-11-17 15h10.19.181379 +0530,
93,0,93,0,581.2945163999684,,,,,,,,,581.2807681998238,581.2945163999684,581.7799115998205,581.7951431998517,582.2799315999728,582.264607799938,582.2646392998286,587.2701192998793,"['v', 'a']",1,VANV,"['v', 'a']",False,"[0.7660191999748349, 1.052014400018379]","[0.27971909986808896, 0.2993189999833703]",639051,001,2024-11-17_15h10.11.700,PartialReportMethod,2024.1.5,None,2024-11-17 15h10.19.181379 +0530,
94,0,94,0,587.2888551000506,,,,,,,,,587.2734770998359,587.2888551000506,587.7860649998765,587.8022036999464,588.2868453999981,588.2715968999546,588.2716306999791,593.2763000000268,"['a', 'e']",0,AXEO,"['a', 'e']",False,"[0.9094039001502097, 1.2837877001147717]","[0.220792300067842, 0.23067549988627434]",639051,001,2024-11-17_15h10.11.700,PartialReportMethod,2024.1.5,None,2024-11-17 15h10.19.181379 +0530,
95,0,95,0,593.2964387999382,,,,,,,,,593.2802691999823,593.2964387999382,593.7919284999371,593.8083951999433,594.2933717998676,594.2775450998452,594.2775782998651,599.2821297999471,"['e', 'g']",1,EGDD,"['e', 'g']",False,"[0.8801408000290394, 1.278441899921745]","[0.24444920010864735, 0.23433850007131696]",639051,001,2024-11-17_15h10.11.700,PartialReportMethod,2024.1.5,None,2024-11-17 15h10.19.181379 +0530,
96,0,96,0,599.3001031999011,,,,,,,,,599.2851267999504,599.3001031999011,599.7827683999203,599.7990406998433,600.2831592999864,600.2675524000078,600.2675874999259,605.272631400032,"['m', 'j']",2,WEIV,"['m', 'j']",False,"[0.9649485999252647, 1.322490399936214]","[0.22950059990398586, 0.17881369986571372]",639051,001,2024-11-17_15h10.11.700,PartialReportMethod,2024.1.5,None,2024-11-17 15h10.19.181379 +0530,
97,0,97,0,605.2912559998222,,,,,,,,,605.2765416998882,605.2912559998222,605.7912202998996,605.80573059991,,606.2900739000179,606.2901133999694,611.2786646999884,"['u', 'e']",2,UERJ,"['u', 'e']",False,"[0.4639803001191467, 1.1366954001132399]","[0.2200690999161452, 0.2576244999654591]",639051,001,2024-11-17_15h10.11.700,PartialReportMethod,2024.1.5,None,2024-11-17 15h10.19.181379 +0530,
98,0,98,0,611.2967089999001,,,,,,,,,611.2818080999423,611.2967089999001,611.7792542998213,611.7953943999019,612.2801856000442,612.2640414000489,612.2640748999547,617.2698295998853,"['r', 'w']",2,RWPM,"['r', 'w']",False,"[1.0142543001566082, 1.4035294000059366]","[0.3634273000061512, 0.2859395002014935]",639051,001,2024-11-17_15h10.11.700,PartialReportMethod,2024.1.5,None,2024-11-17 15h10.19.181379 +0530,
99,0,99,0,617.2881122999825,,,,,,,,,617.2728317000438,617.2881122999825,617.7865285000298,617.8026441000402,618.2862342998851,618.2710765998345,618.2711095998529,623.2764399999287,"['l', 'g']",1,LGAE,"['l', 'g']",False,"[0.2231387000065297, 0.948272000066936]","[0.25558400014415383, 0.23117880010977387]",639051,001,2024-11-17_15h10.11.700,PartialReportMethod,2024.1.5,None,2024-11-17 15h10.19.181379 +0530,
