trials.thisRepN,trials.thisTrialN,trials.thisN,trials.thisIndex,thisRow.t,notes,introduction.started,text.started,key_resp_2.started,introduction.stopped,key_resp_2.keys,key_resp_2.rt,key_resp_2.duration,trial.started,letter_grid.started,row_cue.started,letter_grid.stopped,row_cue.stopped,trial.stopped,response_routine.started,response_routine.stopped,response.keys,response.rt,response.duration,Cued Row,Correct Row,Participant Response,Is Correct,participant,session,date,expName,psychopyVersion,frameRate,expStart,
,,,,,,0.002446299884468317,0.014213599730283022,0.014213599730283022,35.367258799728006,space,35.275559899862856,None,,,,,,,,,,,,,,,,839174,001,2024-11-20_14h45.27.874,PartialReportMethod,2024.1.5,None,2024-11-20 14h45.33.998174 +0530,
0,0,0,0,35.38322649989277,,,,,,,,,35.36999969976023,35.38322649989277,35.87043819995597,35.88702449994162,36.37114490009844,36.35488969972357,36.354912099894136,41.36048319982365,"['s', 'h']","[0.7694080001674592, 1.0514887003228068]","[0.0873000998981297, 0.07529830001294613]",0,SHAG,"['s', 'h']",False,839174,001,2024-11-20_14h45.27.874,PartialReportMethod,2024.1.5,None,2024-11-20 14h45.33.998174 +0530,
1,0,1,0,41.44488329999149,,,,,,,,,41.363904600031674,41.44488329999149,41.876936399843544,41.96048029977828,42.37726219976321,42.3614488998428,42.36146489996463,47.36729989992455,"['u', 'y']","[0.7626012000255287, 1.3202027999795973]","[0.07321739988401532, 0.07008680002763867]",1,UYKA,"['u', 'y']",False,839174,001,2024-11-20_14h45.27.874,PartialReportMethod,2024.1.5,None,2024-11-20 14h45.33.998174 +0530,
2,0,2,0,47.38292279979214,,,,,,,,,47.36848780000582,47.38292279979214,47.86704509984702,47.8838534001261,48.36746639991179,48.35169479995966,48.35171019984409,53.35722240014002,"['t', 'p']","[0.5465001999400556, 1.0102784996852279]","[0.06866159988567233, 0.07163699995726347]",0,TVOW,"['t', 'p']",False,839174,001,2024-11-20_14h45.27.874,PartialReportMethod,2024.1.5,None,2024-11-20 14h45.33.998174 +0530,
3,0,3,0,53.37353909993544,,,,,,,,,53.358074999880046,53.37353909993544,53.87383579974994,53.87383579974994,54.37398950010538,54.35807819990441,54.358092200011015,59.363892199937254,"['k', 'm']","[0.6244371999055147, 0.7855341001413763]","[0.06276350002735853, 0.0703955995850265]",0,XKAB,"['k', 'm']",False,839174,001,2024-11-20_14h45.27.874,PartialReportMethod,2024.1.5,None,2024-11-20 14h45.33.998174 +0530,
4,0,4,0,59.37959549995139,,,,,,,,,59.3650640998967,59.37959549995139,59.883188100066036,59.883188100066036,,60.380478399805725,60.380538099911064,65.36986960005015,"['r', 'a']","[0.44043640000745654, 0.5574723999015987]","[0.07913560001179576, 0.0752286002971232]",1,RAKK,"['r', 'a']",False,839174,001,2024-11-20_14h45.27.874,PartialReportMethod,2024.1.5,None,2024-11-20 14h45.33.998174 +0530,
5,0,5,0,65.38603679975495,,,,,,,,,65.37077299971133,65.38603679975495,65.87023869995028,65.886845999863,66.37049809983,66.35478159971535,66.35479709971696,71.36007109982893,"['w', 'o']","[0.495334199629724, 0.7147695999592543]","[0.08226000005379319, 0.06564019992947578]",2,WOIB,"['w', 'o']",False,839174,001,2024-11-20_14h45.27.874,PartialReportMethod,2024.1.5,None,2024-11-20 14h45.33.998174 +0530,
6,0,6,0,71.37606579996645,,,,,,,,,71.36089150002226,71.37606579996645,71.87678449973464,71.87678449973464,72.37682389980182,72.36153859971091,72.36155520007014,77.36710180016235,"['k', 'j']","[0.46946310019120574, 0.6512291999533772]","[0.07518519973382354, 0.04941350035369396]",2,KJRV,"['k', 'j']",False,839174,001,2024-11-20_14h45.27.874,PartialReportMethod,2024.1.5,None,2024-11-20 14h45.33.998174 +0530,
7,0,7,0,77.38267059996724,,,,,,,,,77.36823699995875,77.38267059996724,77.86672940012068,77.88354229973629,78.36774699995294,78.35118060000241,78.35119460010901,83.35691369976848,"['y', 's']","[1.1644346001558006, 1.3780064000748098]","[0.06159309996291995, 0.07972359983250499]",1,YVRV,"['y', 's']",False,839174,001,2024-11-20_14h45.27.874,PartialReportMethod,2024.1.5,None,2024-11-20 14h45.33.998174 +0530,
8,0,8,0,83.37250329973176,,,,,,,,,83.35807480011135,83.37250329973176,83.8734407001175,83.8734407001175,84.37419159989804,84.35811930010095,84.35813779989257,89.36314640007913,"['z', 'j']","[1.0429219999350607, 1.9541847999207675]","[0.10650190012529492, 0.07271490013226867]",0,JDVK,"['z', 'j']",False,839174,001,2024-11-20_14h45.27.874,PartialReportMethod,2024.1.5,None,2024-11-20 14h45.33.998174 +0530,
9,0,9,0,89.37913869973272,,,,,,,,,89.36397380009294,89.37913869973272,89.87955649988726,89.87955649988726,90.3803880000487,90.36501029971987,90.36502509983256,95.36921009980142,"['l', 'i']","[0.49203870026394725, 0.7035885001532733]","[0.07893860014155507, 0.07375600002706051]",1,LIKN,"['l', 'i']",False,839174,001,2024-11-20_14h45.27.874,PartialReportMethod,2024.1.5,None,2024-11-20 14h45.33.998174 +0530,
10,0,10,0,95.38593479990959,,,,,,,,,95.37025310005993,95.38593479990959,95.86978660011664,95.88646769989282,96.37034050002694,96.35459670005366,96.35461220005527,101.35995549988002,"['u', 'o']","[0.7731920001097023, 1.2102168002165854]","[0.06946170004084706, 0.05917109968140721]",0,MKEV,"['u', 'o']",False,839174,001,2024-11-20_14h45.27.874,PartialReportMethod,2024.1.5,None,2024-11-20 14h45.33.998174 +0530,
11,0,11,0,101.37568139983341,,,,,,,,,101.36103329993784,101.37568139983341,101.87652090005577,101.87652090005577,102.37698889989406,102.36090999981388,102.36092389980331,107.36730489972979,"['p', 't']","[1.2248948998749256, 1.6380443000234663]","[0.07795430021360517, 0.07734879991039634]",0,PTKY,"['p', 't']",False,839174,001,2024-11-20_14h45.27.874,PartialReportMethod,2024.1.5,None,2024-11-20 14h45.33.998174 +0530,
12,0,12,0,107.3833077000454,,,,,,,,,107.36895320005715,107.3833077000454,107.86678249994293,107.88340889988467,108.36705800006166,108.35129200015217,108.35131999989972,113.35689219972119,"['z', 'u']","[1.368299899622798, 1.7466517998836935]","[0.0833784001879394, 0.0978779997676611]",2,QOCY,"['z', 'u']",False,839174,001,2024-11-20_14h45.27.874,PartialReportMethod,2024.1.5,None,2024-11-20 14h45.33.998174 +0530,
13,0,13,0,113.37212330009788,,,,,,,,,113.3586973999627,113.37212330009788,113.87288939999416,113.87288939999416,114.37363769998774,114.35785359982401,114.35786829981953,119.36291030002758,"['w', 'b']","[0.3148094001226127, 0.8358551999554038]","[0.09477430023252964, 0.09211070043966174]",2,WBFZ,"['w', 'b']",False,839174,001,2024-11-20_14h45.27.874,PartialReportMethod,2024.1.5,None,2024-11-20 14h45.33.998174 +0530,
14,0,14,0,119.37836770014837,,,,,,,,,119.36438959976658,119.37836770014837,119.87966809980571,119.87966809980571,120.38027259986848,120.3649705001153,120.36500019999221,125.36926280008629,['k'],[0.9596265996806324],[0.08190530026331544],2,KKNY,['k'],False,839174,001,2024-11-20_14h45.27.874,PartialReportMethod,2024.1.5,None,2024-11-20 14h45.33.998174 +0530,
15,0,15,0,125.38560449983925,,,,,,,,,125.3701673001051,125.38560449983925,125.86957489978522,125.88620910001919,126.37001700000837,126.3544823997654,126.3544970001094,131.3600534000434,"['q', 'l']","[1.312737399712205, 1.5695075001567602]","[0.08825030038133264, 0.07340679969638586]",1,QTRG,"['q', 'l']",False,839174,001,2024-11-20_14h45.27.874,PartialReportMethod,2024.1.5,None,2024-11-20 14h45.33.998174 +0530,
16,0,16,0,131.37572250002995,,,,,,,,,131.36160690011457,131.37572250002995,131.8757087001577,131.8757087001577,132.37768850009888,132.36129739973694,132.36132550006732,137.3678592001088,"['b', 'l']","[1.7556345998309553, 2.231526699848473]","[0.08148579997941852, 0.08200370008125901]",2,BJWG,"['b', 'l']",False,839174,001,2024-11-20_14h45.27.874,PartialReportMethod,2024.1.5,None,2024-11-20 14h45.33.998174 +0530,
17,0,17,0,137.38285009982064,,,,,,,,,137.36943739978597,137.38285009982064,137.8665045001544,137.88346089981496,138.36674509989098,138.35108549986035,138.35110880015418,143.35617170017213,['c'],[0.8044352000579238],[0.09521260019391775],2,PRIB,['c'],False,839174,001,2024-11-20_14h45.27.874,PartialReportMethod,2024.1.5,None,2024-11-20 14h45.33.998174 +0530,
18,0,18,0,143.37182179978117,,,,,,,,,143.35703109996393,143.37182179978117,143.87257139990106,143.87257139990106,144.37267650011927,144.35686579998583,144.3568845000118,149.36335569992661,"['k', 'k']","[0.44572999980300665, 0.6650926000438631]","[0.06944300001487136, 0.07567579997703433]",2,KKJE,"['k', 'k']",False,839174,001,2024-11-20_14h45.27.874,PartialReportMethod,2024.1.5,None,2024-11-20 14h45.33.998174 +0530,
19,0,19,0,149.37911019986495,,,,,,,,,149.36493979999796,149.37911019986495,149.87963970005512,149.87963970005512,150.380061800126,150.36402860004455,150.36404930008575,155.36865429999307,"['a', 's']","[0.6454016999341547, 0.8506613997742534]","[0.07878480013459921, 0.06977989990264177]",0,ASOB,"['a', 's']",False,839174,001,2024-11-20_14h45.27.874,PartialReportMethod,2024.1.5,None,2024-11-20 14h45.33.998174 +0530,
20,0,20,0,155.3852361999452,,,,,,,,,155.3702229000628,155.3852361999452,155.86888810014352,155.88541160011664,156.36987129971385,156.35422129975632,156.35423969989643,161.3596789999865,"['w', 'u']","[1.1517712003551424, 1.6912217000499368]","[0.06830709986388683, 0.10168230021372437]",1,KUMZ,"['w', 'u']",False,839174,001,2024-11-20_14h45.27.874,PartialReportMethod,2024.1.5,None,2024-11-20 14h45.33.998174 +0530,
21,0,21,0,161.37542890012264,,,,,,,,,161.36065129982308,161.37542890012264,161.87563950009644,161.87563950009644,162.37689699977636,162.3599793999456,162.35999599983916,167.36535419989377,"['a', 'b']","[0.7606440000236034, 1.090337600093335]","[0.09896889980882406, 0.08893639966845512]",0,MHFH,"['a', 'b']",False,839174,001,2024-11-20_14h45.27.874,PartialReportMethod,2024.1.5,None,2024-11-20 14h45.33.998174 +0530,
22,0,22,0,167.3817476001568,,,,,,,,,167.3662442001514,167.3817476001568,167.8824216001667,167.8824216001667,168.3830756000243,168.36739260004833,168.36741250008345,173.37261069985107,"['x', 'w']","[1.154698499944061, 1.5034380997531116]","[0.09899859968572855, 0.1045482000336051]",0,XWDU,"['x', 'w']",False,839174,001,2024-11-20_14h45.27.874,PartialReportMethod,2024.1.5,None,2024-11-20 14h45.33.998174 +0530,
23,0,23,0,173.38885649992153,,,,,,,,,173.3740459997207,173.38885649992153,173.87251499993727,173.8892526999116,174.3729669000022,174.35747870011255,174.35749349975958,179.36248240014538,"['m', 'f']","[0.874934499617666, 1.8672076999209821]","[0.08016710029914975, 0.08539449982345104]",2,MFBC,"['m', 'f']",False,839174,001,2024-11-20_14h45.27.874,PartialReportMethod,2024.1.5,None,2024-11-20 14h45.33.998174 +0530,
24,0,24,0,179.37850009975955,,,,,,,,,179.36331020016223,179.37850009975955,179.8791008000262,179.8791008000262,180.3795782001689,180.36385049996898,180.363868100103,185.36897940002382,"['b', 'p']","[0.7572356997989118, 1.2523628999479115]","[0.08929490018635988, 0.0901995999738574]",0,BPBQ,"['b', 'p']",False,839174,001,2024-11-20_14h45.27.874,PartialReportMethod,2024.1.5,None,2024-11-20 14h45.33.998174 +0530,
25,0,25,0,185.38494580006227,,,,,,,,,185.37012830004096,185.38494580006227,185.86928559979424,185.88576880004257,186.3695792001672,186.35357949975878,186.3535939999856,191.35847269976512,"['t', 'b']","[0.5978228002786636, 0.8979915999807417]","[0.09570379974320531, 0.07629540003836155]",1,DLOZ,"['t', 'b']",False,839174,001,2024-11-20_14h45.27.874,PartialReportMethod,2024.1.5,None,2024-11-20 14h45.33.998174 +0530,
26,0,26,0,191.37452209973708,,,,,,,,,191.35933939972892,191.37452209973708,191.87562529975548,191.87562529975548,192.3765287999995,192.36017719982192,192.36019759997725,197.36534389993176,"['u', 'l']","[0.5216041998937726, 0.8962055002339184]","[0.0991177000105381, 0.09268629970028996]",2,ULGQ,"['u', 'l']",False,839174,001,2024-11-20_14h45.27.874,PartialReportMethod,2024.1.5,None,2024-11-20 14h45.33.998174 +0530,
27,0,27,0,197.38163439976051,,,,,,,,,197.36620760010555,197.38163439976051,197.8823655997403,197.8823655997403,198.38283210014924,198.36716869985685,198.3672202997841,203.37202350003645,"['n', 'u']","[1.2989882002584636, 1.6554104001261294]","[0.0928666996769607, 0.10783499991521239]",1,NUPM,"['n', 'u']",False,839174,001,2024-11-20_14h45.27.874,PartialReportMethod,2024.1.5,None,2024-11-20 14h45.33.998174 +0530,
28,0,28,0,203.3882272001356,,,,,,,,,203.37288359971717,203.3882272001356,203.87224519997835,203.88892540009692,204.37281320011243,204.35701549984515,204.3570306999609,209.36244719987735,"['w', 'v']","[0.6964993998408318, 1.4000011999160051]","[0.07881810003891587, 0.10981630021706223]",0,WWQE,"['w', 'v']",False,839174,001,2024-11-20_14h45.27.874,PartialReportMethod,2024.1.5,None,2024-11-20 14h45.33.998174 +0530,
29,0,29,0,209.3785469001159,,,,,,,,,209.36331379972398,209.3785469001159,209.87860679998994,209.87860679998994,210.37937790015712,210.36344600003213,210.3634663000703,215.36830839980394,"['j', 'u']","[1.134419099893421, 1.3032660000026226]","[0.0749782002530992, 0.06612130021676421]",2,JKZY,"['j', 'u']",False,839174,001,2024-11-20_14h45.27.874,PartialReportMethod,2024.1.5,None,2024-11-20 14h45.33.998174 +0530,
30,0,30,0,215.38551189983264,,,,,,,,,215.36948180012405,215.38551189983264,215.8685340997763,215.8854061998427,216.36922169988975,216.3535917000845,216.35360840009525,221.35883039981127,"['o', 'o']","[0.536963100079447, 0.7688786000944674]","[0.07557970006018877, 0.08021000027656555]",0,OOYD,"['o', 'o']",False,839174,001,2024-11-20_14h45.27.874,PartialReportMethod,2024.1.5,None,2024-11-20 14h45.33.998174 +0530,
31,0,31,0,221.37464409973472,,,,,,,,,221.35964239994064,221.37464409973472,221.87553589977324,221.87553589977324,222.3760083001107,222.36010359972715,222.36012049997225,227.36541670002043,"['v', 'z']","[1.1152412998490036, 1.4943272001110017]","[0.07860140036791563, 0.13858629995957017]",2,VZGN,"['v', 'z']",False,839174,001,2024-11-20_14h45.27.874,PartialReportMethod,2024.1.5,None,2024-11-20 14h45.33.998174 +0530,
32,0,32,0,227.3813935997896,,,,,,,,,227.366532899905,227.3813935997896,227.8819058998488,227.8819058998488,228.3826174000278,228.366578000132,228.36659670015797,233.37152170017362,"['m', 'l']","[0.6214341004379094, 0.8286162000149488]","[0.07268879981711507, 0.08187790028750896]",2,MLAP,"['m', 'l']",False,839174,001,2024-11-20_14h45.27.874,PartialReportMethod,2024.1.5,None,2024-11-20 14h45.33.998174 +0530,
33,0,33,0,233.38808229984716,,,,,,,,,233.3727266001515,233.38808229984716,233.87222660006955,233.8887478997931,234.3726147999987,234.35650239977986,234.35651719989255,239.36192880012095,"['n', 'x']","[1.1127960002049804, 1.332440100144595]","[0.09034919971600175, 0.06946619972586632]",2,NXCE,"['n', 'x']",False,839174,001,2024-11-20_14h45.27.874,PartialReportMethod,2024.1.5,None,2024-11-20 14h45.33.998174 +0530,
34,0,34,0,239.37802710011601,,,,,,,,,239.3627528999932,239.37802710011601,239.87913900008425,239.87913900008425,240.37931559979916,240.36352689983323,240.3635419998318,245.3679912998341,"['n', 'z']","[1.7425239998847246, 2.126220100093633]","[0.0745979999192059, 0.09075829992070794]",0,HZCM,"['n', 'z']",False,839174,001,2024-11-20_14h45.27.874,PartialReportMethod,2024.1.5,None,2024-11-20 14h45.33.998174 +0530,
35,0,35,0,245.3844496998936,,,,,,,,,245.36911610001698,245.3844496998936,245.8685924001038,245.88510029995814,246.3690944998525,246.3538425997831,246.35386259993538,251.35903939977288,"['p', 'b']","[0.9477919000200927, 1.7353825001046062]","[0.08397189993411303, 0.08454860001802444]",0,PKBC,"['p', 'b']",False,839174,001,2024-11-20_14h45.27.874,PartialReportMethod,2024.1.5,None,2024-11-20 14h45.33.998174 +0530,
36,0,36,0,251.37457850016654,,,,,,,,,251.36037879996002,251.37457850016654,251.8751587998122,251.8751587998122,252.37560389982536,252.36008709995076,252.3601075001061,257.36504299985245,"['b', 'f']","[1.3289266997016966, 1.8790355999954045]","[0.10172070004045963, 0.0992858000099659]",2,FBVA,"['b', 'f']",False,839174,001,2024-11-20_14h45.27.874,PartialReportMethod,2024.1.5,None,2024-11-20 14h45.33.998174 +0530,
37,0,37,0,257.38101990008727,,,,,,,,,257.36614569975063,257.38101990008727,257.88170729996637,257.88170729996637,258.382146100048,258.3662783000618,258.3662978997454,263.37120119994506,"['i', 'q']","[0.7231852002441883, 1.3935572002083063]","[0.0846548997797072, 0.06725810002535582]",1,IQZO,"['i', 'q']",False,839174,001,2024-11-20_14h45.27.874,PartialReportMethod,2024.1.5,None,2024-11-20 14h45.33.998174 +0530,
38,0,38,0,263.38758759992197,,,,,,,,,263.3721723998897,263.38758759992197,263.8715276001021,263.8882049000822,264.372069099918,264.35673790005967,264.3567548999563,269.3618497001007,['l'],[1.2559085004031658],[0.07122649997472763],2,LPAG,['l'],False,839174,001,2024-11-20_14h45.27.874,PartialReportMethod,2024.1.5,None,2024-11-20 14h45.33.998174 +0530,
39,0,39,0,269.3777501997538,,,,,,,,,269.36266139987856,269.3777501997538,269.8781702001579,269.8781702001579,270.37874029995874,270.36294469982386,270.36296549998224,275.3681847001426,['f'],[0.8706681001931429],[0.0824545999057591],1,MQTY,['f'],False,839174,001,2024-11-20_14h45.27.874,PartialReportMethod,2024.1.5,None,2024-11-20 14h45.33.998174 +0530,
40,0,40,0,275.38403999991715,,,,,,,,,275.3690794999711,275.38403999991715,275.86830950016156,275.8848739997484,276.3690086998977,276.35298490012065,276.35299960011616,281.35800650017336,['l'],[0.9091278999112546],[0.09133710013702512],0,NTAR,['l'],False,839174,001,2024-11-20_14h45.27.874,PartialReportMethod,2024.1.5,None,2024-11-20 14h45.33.998174 +0530,
41,0,41,0,281.3747455999255,,,,,,,,,281.3595114997588,281.3747455999255,281.8749393001199,281.8749393001199,282.37579960003495,282.35990040004253,282.359924599994,287.3648083000444,"['l', 'y']","[0.7144029000774026, 1.3152692997828126]","[0.10458819987252355, 0.10016410006210208]",1,LYUW,"['l', 'y']",False,839174,001,2024-11-20_14h45.27.874,PartialReportMethod,2024.1.5,None,2024-11-20 14h45.33.998174 +0530,
42,0,42,0,287.38098530005664,,,,,,,,,287.3659247001633,287.38098530005664,287.88153300015256,287.88153300015256,288.3819486000575,288.3662109998986,288.3662315001711,293.37113820016384,['r'],[0.7363281003199518],[0.09505969984456897],0,GGBR,['r'],False,839174,001,2024-11-20_14h45.27.874,PartialReportMethod,2024.1.5,None,2024-11-20 14h45.33.998174 +0530,
43,0,43,0,293.38751809997484,,,,,,,,,293.37199140014127,293.38751809997484,293.87171289976686,293.8878179001622,294.37189149996266,294.3559946999885,294.3560095001012,299.36156320013106,"['r', 'm']","[1.3073780997656286, 1.6301895999349654]","[0.0902873002924025, 0.09169699996709824]",2,RMEA,"['r', 'm']",False,839174,001,2024-11-20_14h45.27.874,PartialReportMethod,2024.1.5,None,2024-11-20 14h45.33.998174 +0530,
44,0,44,0,299.37733149994165,,,,,,,,,299.3628263999708,299.37733149994165,299.8778937999159,299.8778937999159,300.3781157997437,300.36288239993155,300.3629026999697,305.36744499998167,['y'],[1.1497058998793364],[0.13393169967457652],0,VJCO,['y'],False,839174,001,2024-11-20_14h45.27.874,PartialReportMethod,2024.1.5,None,2024-11-20 14h45.33.998174 +0530,
45,0,45,0,305.3840974001214,,,,,,,,,305.36866390006617,305.3840974001214,305.8679081001319,305.8846187000163,306.3685666997917,306.3526829001494,306.35269739991054,311.3581419000402,"['h', 'o']","[0.4897219999693334, 0.9399995999410748]","[0.09593810001388192, 0.07598650036379695]",2,HOQL,"['h', 'o']",False,839174,001,2024-11-20_14h45.27.874,PartialReportMethod,2024.1.5,None,2024-11-20 14h45.33.998174 +0530,
46,0,46,0,311.3742549000308,,,,,,,,,311.35910040000454,311.3742549000308,311.8774705999531,311.8774705999531,,312.3751734001562,312.3751992001198,317.38122460013255,"['f', 'l']","[0.5857377001084387, 0.8876009001396596]","[0.12517070025205612, 0.08731420012190938]",2,FILE,"['f', 'l']",False,839174,001,2024-11-20_14h45.27.874,PartialReportMethod,2024.1.5,None,2024-11-20 14h45.33.998174 +0530,
47,0,47,0,317.3970858999528,,,,,,,,,317.3829487999901,317.3970858999528,317.88130499981344,317.89814279973507,318.3818427999504,318.36588679999113,318.3659005998634,323.3707425999455,"['c', 'q']","[0.4148853002116084, 1.0168546000495553]","[0.08313030004501343, 0.08255530009046197]",2,CQIY,"['c', 'q']",False,839174,001,2024-11-20_14h45.27.874,PartialReportMethod,2024.1.5,None,2024-11-20 14h45.33.998174 +0530,
48,0,48,0,323.3872746997513,,,,,,,,,323.37190859997645,323.3872746997513,323.8710985998623,323.887990700081,324.3716337000951,324.35588479973376,324.355902899988,329.3611551998183,['u'],[1.1222093999385834],[0.11205889983102679],0,EHKS,['u'],False,839174,001,2024-11-20_14h45.27.874,PartialReportMethod,2024.1.5,None,2024-11-20 14h45.33.998174 +0530,
49,0,49,0,329.3770049000159,,,,,,,,,329.36233879998326,329.3770049000159,329.877810199745,329.877810199745,330.37846660008654,330.36270960001275,330.3627276998013,335.36731249978766,"['t', 'x']","[0.7830048003233969, 1.143998600076884]","[0.08291619969531894, 0.08862309996038675]",1,TXCD,"['t', 'x']",False,839174,001,2024-11-20_14h45.27.874,PartialReportMethod,2024.1.5,None,2024-11-20 14h45.33.998174 +0530,
50,0,50,0,335.3837513998151,,,,,,,,,335.36821240000427,335.3837513998151,335.86779800010845,335.8836592999287,336.36816149996594,336.352625799831,336.3526411000639,341.3577765999362,"['d', 'o']","[0.7818586998619139, 1.0881628999486566]","[0.07658200012519956, 0.0921608000062406]",0,DOHF,"['d', 'o']",False,839174,001,2024-11-20_14h45.27.874,PartialReportMethod,2024.1.5,None,2024-11-20 14h45.33.998174 +0530,
51,0,51,0,341.37413149978966,,,,,,,,,341.3586047999561,341.37413149978966,341.8741279998794,341.8741279998794,342.374788899906,342.35903650010005,342.3590516997501,347.36463599978015,"['r', 'z']","[1.4319413001649082, 2.5139330001547933]","[0.10560119990259409, 0.1162648000754416]",0,RNKB,"['r', 'z']",False,839174,001,2024-11-20_14h45.27.874,PartialReportMethod,2024.1.5,None,2024-11-20 14h45.33.998174 +0530,
52,0,52,0,347.3803042997606,,,,,,,,,347.3654682999477,347.3803042997606,347.8809952000156,347.8809952000156,348.38162819994614,348.36575029976666,348.36576669989154,353.3705029999837,"['r', 'c']","[1.9564253999851644, 2.327823399566114]","[0.10188029985874891, 0.08835320034995675]",0,FCAJ,"['r', 'c']",False,839174,001,2024-11-20_14h45.27.874,PartialReportMethod,2024.1.5,None,2024-11-20 14h45.33.998174 +0530,
53,0,53,0,353.38717859983444,,,,,,,,,353.3714817999862,353.38717859983444,353.8706835997291,353.8873769999482,354.3714499999769,354.3557592998259,354.3557768999599,359.36130749993026,"['i', 'g']","[0.6390076000243425, 1.0949118002317846]","[0.09814200038090348, 0.077948700170964]",0,IGWJ,"['i', 'g']",False,839174,001,2024-11-20_14h45.27.874,PartialReportMethod,2024.1.5,None,2024-11-20 14h45.33.998174 +0530,
54,0,54,0,359.3769048997201,,,,,,,,,359.3621243000962,359.3769048997201,359.8774719000794,359.8774719000794,360.3780072000809,360.3622419000603,360.3622575998306,365.36743320012465,"['i', 'y']","[0.6598550998605788, 1.006186299957335]","[0.06907889991998672, 0.08223569998517632]",0,YNIM,"['i', 'y']",False,839174,001,2024-11-20_14h45.27.874,PartialReportMethod,2024.1.5,None,2024-11-20 14h45.33.998174 +0530,
55,0,55,0,365.38367309980094,,,,,,,,,365.36825719987974,365.38367309980094,365.86737310001627,365.8842922998592,366.3681165999733,366.3521809000522,366.3521986999549,371.3575605000369,"['l', 'g']","[0.8699099998921156, 1.3993619000539184]","[0.09598529990762472, 0.08588959975168109]",2,LGDM,"['l', 'g']",False,839174,001,2024-11-20_14h45.27.874,PartialReportMethod,2024.1.5,None,2024-11-20 14h45.33.998174 +0530,
56,0,56,0,371.37352050002664,,,,,,,,,371.3587055001408,371.37352050002664,371.8741822997108,371.8741822997108,372.3749139001593,372.3588383998722,372.3588553997688,377.3641268997453,"['l', 'q']","[0.6428123000077903, 1.0620245998725295]","[0.07545229978859425, 0.1029235003516078]",2,LQYZ,"['l', 'q']",False,839174,001,2024-11-20_14h45.27.874,PartialReportMethod,2024.1.5,None,2024-11-20 14h45.33.998174 +0530,
57,0,57,0,377.38010059995577,,,,,,,,,377.3652278999798,377.38010059995577,377.88056869991124,377.88056869991124,378.38113499991596,378.3653672998771,378.36538169998676,383.37007729988545,"['p', 'b']","[0.6352543998509645, 1.6572643998079002]","[0.08705910015851259, 0.08522620005533099]",2,PPHI,"['p', 'b']",False,839174,001,2024-11-20_14h45.27.874,PartialReportMethod,2024.1.5,None,2024-11-20 14h45.33.998174 +0530,
58,0,58,0,383.38663950003684,,,,,,,,,383.3711349000223,383.38663950003684,383.8706450997852,383.88730669999495,384.37124949973077,384.3552741999738,384.355297899805,389.360487899743,['q'],[1.1567681999877095],[0.12584679992869496],0,KVHZ,['q'],False,839174,001,2024-11-20_14h45.27.874,PartialReportMethod,2024.1.5,None,2024-11-20 14h45.33.998174 +0530,
59,0,59,0,389.37672659987584,,,,,,,,,389.3613034998998,389.37672659987584,389.8773193997331,389.8773193997331,390.37749829981476,390.36199550004676,390.36201279982924,395.36752829980105,"['m', 'q']","[0.9568236996419728, 1.3384003997780383]","[0.08278460009023547, 0.08611340029165149]",1,MQTG,"['m', 'q']",False,839174,001,2024-11-20_14h45.27.874,PartialReportMethod,2024.1.5,None,2024-11-20 14h45.33.998174 +0530,
60,0,60,0,395.38326720008627,,,,,,,,,395.36837589973584,395.38326720008627,395.86718729976565,395.88396420003846,396.3681401000358,396.3519600001164,396.3519815998152,401.35742849996313,"['q', 'z']","[0.6528064999729395, 1.0407163999043405]","[0.08271760027855635, 0.11207009991630912]",2,QZEC,"['q', 'z']",False,839174,001,2024-11-20_14h45.27.874,PartialReportMethod,2024.1.5,None,2024-11-20 14h45.33.998174 +0530,
61,0,61,0,401.3732619998045,,,,,,,,,401.35831449972466,401.3732619998045,401.8737639999017,401.8737639999017,402.3742860001512,402.3584420001134,402.35845689987764,407.36374339973554,"['a', 'y']","[0.41354440012946725, 0.915434299968183]","[0.11582969967275858, 0.1075444002635777]",1,AYFI,"['a', 'y']",False,839174,001,2024-11-20_14h45.27.874,PartialReportMethod,2024.1.5,None,2024-11-20 14h45.33.998174 +0530,
62,0,62,0,407.3795917001553,,,,,,,,,407.36457599978894,407.3795917001553,407.88053660001606,407.88053660001606,408.38139079976827,408.3651136998087,408.3651316999458,413.3693816997111,None,,,1,DJGV,None,False,839174,001,2024-11-20_14h45.27.874,PartialReportMethod,2024.1.5,None,2024-11-20 14h45.33.998174 +0530,
63,0,63,0,413.3864568998106,,,,,,,,,413.37044719979167,413.3864568998106,413.87035899981856,413.88706889981404,414.37079920014367,414.35452659986913,414.3545474000275,419.36008889973164,"['d', 'h']","[0.6058082999661565, 1.0597397997044027]","[0.11678399983793497, 0.12235610000789165]",1,DHPV,"['d', 'h']",False,839174,001,2024-11-20_14h45.27.874,PartialReportMethod,2024.1.5,None,2024-11-20 14h45.33.998174 +0530,
64,0,64,0,419.37667670007795,,,,,,,,,419.36147509980947,419.37667670007795,419.87629920011386,419.87629920011386,420.3775315997191,420.3612040998414,420.36122300010175,425.3670020997524,None,,,1,UYBX,None,False,839174,001,2024-11-20_14h45.27.874,PartialReportMethod,2024.1.5,None,2024-11-20 14h45.33.998174 +0530,
65,0,65,0,425.3827968998812,,,,,,,,,425.36757190013304,425.3827968998812,425.8668901999481,425.8837443999946,426.3673582999036,426.3515817001462,426.3515975000337,431.35668179998174,None,,,2,WQSY,None,False,839174,001,2024-11-20_14h45.27.874,PartialReportMethod,2024.1.5,None,2024-11-20 14h45.33.998174 +0530,
66,0,66,0,431.37322699977085,,,,,,,,,431.35744699975476,431.37322699977085,431.8733481997624,431.8733481997624,432.37415509996936,432.35833499999717,432.3583538001403,437.3634012998082,"['w', 'b']","[0.6149022998288274, 0.994270000141114]","[0.08562370017170906, 0.10196750005707145]",0,VMWY,"['w', 'b']",False,839174,001,2024-11-20_14h45.27.874,PartialReportMethod,2024.1.5,None,2024-11-20 14h45.33.998174 +0530,
67,0,67,0,437.37969159986824,,,,,,,,,437.36422979971394,437.37969159986824,437.8801735001616,437.8801735001616,438.3806777000427,438.36486640013754,438.36488289991394,443.3697342998348,"['i', 'x']","[0.6093745999969542, 0.9356048000045121]","[0.08875910006463528, 0.08630389999598265]",1,IXDQ,"['i', 'x']",False,839174,001,2024-11-20_14h45.27.874,PartialReportMethod,2024.1.5,None,2024-11-20 14h45.33.998174 +0530,
68,0,68,0,443.38623759988695,,,,,,,,,443.3706582998857,443.38623759988695,443.86997819971293,443.88667639996856,444.3708361997269,444.3548655998893,444.35488309990615,449.3606118001044,['x'],[0.9330362998880446],[0.07963240006938577],1,XUXL,['x'],False,839174,001,2024-11-20_14h45.27.874,PartialReportMethod,2024.1.5,None,2024-11-20 14h45.33.998174 +0530,
69,0,69,0,449.3756987997331,,,,,,,,,449.3617150001228,449.3756987997331,449.8766247997992,449.8766247997992,450.37717799982056,450.36133489990607,450.3613530998118,455.3662056000903,"['p', 'b']","[1.0732094999402761, 2.0889162002131343]","[0.08620520029217005, 0.09262839984148741]",2,PUQP,"['p', 'b']",False,839174,001,2024-11-20_14h45.27.874,PartialReportMethod,2024.1.5,None,2024-11-20 14h45.33.998174 +0530,
70,0,70,0,455.3820066000335,,,,,,,,,455.36760979983956,455.3820066000335,455.8667219998315,455.8834970998578,456.3672866001725,456.35144819971174,456.35146529972553,461.3573206998408,"['h', 'n']","[1.1494664000347257, 1.9926527999341488]","[0.08018379984423518, 0.08897029981017113]",1,HNEM,"['h', 'n']",False,839174,001,2024-11-20_14h45.27.874,PartialReportMethod,2024.1.5,None,2024-11-20 14h45.33.998174 +0530,
71,0,71,0,461.3727540001273,,,,,,,,,461.35847450001165,461.3727540001273,461.87332980008796,461.87332980008796,462.37350860005245,462.3580434001051,462.3580581997521,467.3633705000393,"['w', 'v']","[0.775337299797684, 2.196574700064957]","[0.11559149995446205, 0.15692929970100522]",2,WCNP,"['w', 'v']",False,839174,001,2024-11-20_14h45.27.874,PartialReportMethod,2024.1.5,None,2024-11-20 14h45.33.998174 +0530,
72,0,72,0,467.379671999719,,,,,,,,,467.3642179998569,467.379671999719,467.87994149979204,467.87994149979204,468.3804323999211,468.3646264001727,468.36464180005714,473.36908249976113,"['u', 'b']","[1.711952700279653, 2.350882400292903]","[0.1327263996936381, 0.21591820009052753]",0,CJRZ,"['u', 'b']",False,839174,001,2024-11-20_14h45.27.874,PartialReportMethod,2024.1.5,None,2024-11-20 14h45.33.998174 +0530,
73,0,73,0,473.38586620008573,,,,,,,,,473.3701281999238,473.38586620008573,473.8692807001062,473.88589809974656,474.3705653999932,474.3543897997588,474.35440699988976,479.3596850000322,['f'],[0.8321894998662174],[0.09506800025701523],1,FZGF,['f'],False,839174,001,2024-11-20_14h45.27.874,PartialReportMethod,2024.1.5,None,2024-11-20 14h45.33.998174 +0530,
74,0,74,0,479.3757476997562,,,,,,,,,479.3605158999562,479.3757476997562,479.87623779987916,479.87623779987916,480.3772896998562,480.36092500016093,480.3609511000104,485.366704700049,"['u', 'h']","[0.7077108998782933, 0.871108999941498]","[0.07981240004301071, 0.07528259977698326]",0,UHWB,"['u', 'h']",False,839174,001,2024-11-20_14h45.27.874,PartialReportMethod,2024.1.5,None,2024-11-20 14h45.33.998174 +0530,
75,0,75,0,485.3824690999463,,,,,,,,,485.36782489996403,485.3824690999463,485.88308040006086,485.88308040006086,486.3836946999654,486.367303899955,486.3673207000829,491.37232069997117,"['b', 'n']","[0.6049369000829756, 0.7927617002278566]","[0.08684600004926324, 0.0722873997874558]",1,BNKT,"['b', 'n']",False,839174,001,2024-11-20_14h45.27.874,PartialReportMethod,2024.1.5,None,2024-11-20 14h45.33.998174 +0530,
76,0,76,0,491.3889998998493,,,,,,,,,491.3732686997391,491.3889998998493,491.8731383001432,491.8894393001683,492.37375409994274,492.3581761000678,492.3581904997118,497.363320000004,['p'],[0.601982899941504],[0.06938479980453849],0,PJSF,['p'],False,839174,001,2024-11-20_14h45.27.874,PartialReportMethod,2024.1.5,None,2024-11-20 14h45.33.998174 +0530,
77,0,77,0,497.3789034001529,,,,,,,,,497.3641341999173,497.3789034001529,497.8800536999479,497.8800536999479,498.3803953998722,498.3640866000205,498.3641001000069,503.36912890011445,['q'],[0.877723400015384],[0.07476270012557507],0,QNUQ,['q'],False,839174,001,2024-11-20_14h45.27.874,PartialReportMethod,2024.1.5,None,2024-11-20 14h45.33.998174 +0530,
78,0,78,0,503.3856758000329,,,,,,,,,503.3701888998039,503.3856758000329,503.8701790999621,503.88607669994235,504.37012760015205,504.3545927000232,504.3546107998118,509.3596471999772,['h'],[0.7776006003841758],[0.0852479999884963],0,HWZD,['h'],False,839174,001,2024-11-20_14h45.27.874,PartialReportMethod,2024.1.5,None,2024-11-20 14h45.33.998174 +0530,
79,0,79,0,509.3754611997865,,,,,,,,,509.3607594999485,509.3754611997865,509.87637579999864,509.87637579999864,510.3767459001392,510.3607533997856,510.36076910002157,515.3663901998661,['b'],[1.5154586001299322],[0.08960979990661144],2,BZVH,['b'],False,839174,001,2024-11-20_14h45.27.874,PartialReportMethod,2024.1.5,None,2024-11-20 14h45.33.998174 +0530,
80,0,80,0,515.3820854001679,,,,,,,,,515.3675127001479,515.3820854001679,515.8827832001261,515.8827832001261,516.3837943999097,516.367362999823,516.3673797999509,521.3721969998442,"['l', 'r']","[0.5095823998562992, 0.9144632997922599]","[0.08261439995840192, 0.15078260004520416]",2,LRAC,"['l', 'r']",False,839174,001,2024-11-20_14h45.27.874,PartialReportMethod,2024.1.5,None,2024-11-20 14h45.33.998174 +0530,
81,0,81,0,521.3886349997483,,,,,,,,,521.37338239979,521.3886349997483,521.8726965999231,521.8894587000832,522.3737945999019,522.3577938000672,522.3578117997386,527.3629858000204,"['n', 'n']","[1.476482099853456, 1.8853579997085035]","[0.09038620023056865, 0.09971730038523674]",1,NNFZ,"['n', 'n']",False,839174,001,2024-11-20_14h45.27.874,PartialReportMethod,2024.1.5,None,2024-11-20 14h45.33.998174 +0530,
82,0,82,0,527.3787434999831,,,,,,,,,527.3638621000573,527.3787434999831,527.8790925000794,527.8790925000794,528.3799413000233,528.3639147998765,528.3639336000197,533.3689570999704,['t'],[3.6217192001640797],[0.08243439998477697],1,RGEZ,['t'],False,839174,001,2024-11-20_14h45.27.874,PartialReportMethod,2024.1.5,None,2024-11-20 14h45.33.998174 +0530,
83,0,83,0,533.3855996998027,,,,,,,,,533.3698722999543,533.3855996998027,533.8693252000958,533.8862419999205,534.3696133000776,534.3539112000726,534.3539275997318,539.3592289998196,"['c', 'm']","[0.7923310003243387, 0.9955546003766358]","[0.07211689976975322, 0.06468869978561997]",1,BMKZ,"['c', 'm']",False,839174,001,2024-11-20_14h45.27.874,PartialReportMethod,2024.1.5,None,2024-11-20 14h45.33.998174 +0530,
84,0,84,0,539.3751419000328,,,,,,,,,539.3601135001518,539.3751419000328,539.8757935999893,539.8757935999893,540.3762948000804,540.3603248000145,540.3603408001363,545.3657609000802,"['n', 'x']","[1.0290206000208855, 1.2284494997002184]","[0.08833489986136556, 0.06361149996519089]",2,NXTT,"['n', 'x']",False,839174,001,2024-11-20_14h45.27.874,PartialReportMethod,2024.1.5,None,2024-11-20 14h45.33.998174 +0530,
85,0,85,0,545.3819216997363,,,,,,,,,545.3665744001046,545.3819216997363,545.8825916997157,545.8825916997157,546.383142999839,546.3670008997433,546.3670161999762,551.3719818997197,"['o', 'j']","[0.4494618000462651, 0.9275346999056637]","[0.08288039965555072, 0.07551530003547668]",2,OJZV,"['o', 'j']",False,839174,001,2024-11-20_14h45.27.874,PartialReportMethod,2024.1.5,None,2024-11-20 14h45.33.998174 +0530,
86,0,86,0,551.388553599827,,,,,,,,,551.3728669998236,551.388553599827,551.8723299000412,551.889199799858,552.3731427998282,552.3574915998615,552.3575067999773,557.362432199996,"['j', 'h']","[0.799165700096637, 0.9930664002895355]","[0.0875730998814106, 0.07137689972296357]",2,JHOJ,"['j', 'h']",False,839174,001,2024-11-20_14h45.27.874,PartialReportMethod,2024.1.5,None,2024-11-20 14h45.33.998174 +0530,
87,0,87,0,557.378509500064,,,,,,,,,557.3632956999354,557.378509500064,557.8788878000341,557.8788878000341,558.3794510001317,558.3638498000801,558.3638642998412,563.368766900152,"['l', 'z']","[1.0860021002590656, 1.3332285000942647]","[0.08607839979231358, 0.07125050015747547]",1,BZKD,"['l', 'z']",False,839174,001,2024-11-20_14h45.27.874,PartialReportMethod,2024.1.5,None,2024-11-20 14h45.33.998174 +0530,
88,0,88,0,563.385067100171,,,,,,,,,563.3699962999672,563.385067100171,563.8688495000824,563.8856718000025,564.3696113000624,564.3542969999835,564.3543122997507,569.3593771997839,"['j', 'w']","[0.7555408999323845, 1.0563910999335349]","[0.07603180035948753, 0.08629340026527643]",2,JWES,"['j', 'w']",False,839174,001,2024-11-20_14h45.27.874,PartialReportMethod,2024.1.5,None,2024-11-20 14h45.33.998174 +0530,
89,0,89,0,569.3749186997302,,,,,,,,,569.360214299988,569.3749186997302,569.875866800081,569.875866800081,570.3760994998738,570.360250200145,570.3602698999457,575.3654698999599,['q'],[0.7646220000460744],[0.0753490999341011],0,QWJD,['q'],False,839174,001,2024-11-20_14h45.27.874,PartialReportMethod,2024.1.5,None,2024-11-20 14h45.33.998174 +0530,
90,0,90,0,575.3815452000126,,,,,,,,,575.3662851001136,575.3815452000126,575.8822165997699,575.8822165997699,576.3824046999216,576.3669362999499,576.3669509999454,581.3715703999624,"['n', 'd']","[1.0661602998152375, 1.2351146000437438]","[0.07860640017315745, 0.07861230010166764]",1,NDSN,"['n', 'd']",False,839174,001,2024-11-20_14h45.27.874,PartialReportMethod,2024.1.5,None,2024-11-20 14h45.33.998174 +0530,
91,0,91,0,581.3878977997229,,,,,,,,,581.3731185998768,581.3878977997229,581.872550399974,581.8891225997359,582.3727770997211,582.3567532999441,582.3567678998224,587.36229560012,['v'],[0.8858181000687182],[0.09862580010667443],0,VEJK,['v'],False,839174,001,2024-11-20_14h45.27.874,PartialReportMethod,2024.1.5,None,2024-11-20 14h45.33.998174 +0530,
92,0,92,0,587.3783153998666,,,,,,,,,587.3635073001496,587.3783153998666,587.8791066999547,587.8791066999547,588.3795769000426,588.3638454000466,588.3638647999614,593.36810349999,"['e', 'f']","[0.6941515998914838, 1.5880362996831536]","[0.08916419977322221, 0.09867530036717653]",1,EFKP,"['e', 'f']",False,839174,001,2024-11-20_14h45.27.874,PartialReportMethod,2024.1.5,None,2024-11-20 14h45.33.998174 +0530,
93,0,93,0,593.3849443998188,,,,,,,,,593.3691464001313,593.3849443998188,593.8690534001216,593.8853596998379,594.3691186001524,594.3535497998819,594.3535640998743,599.3587623997591,"['z', 'n']","[0.48009669966995716, 0.8945156997069716]","[0.0952194002456963, 0.08246110007166862]",1,ZNPG,"['z', 'n']",False,839174,001,2024-11-20_14h45.27.874,PartialReportMethod,2024.1.5,None,2024-11-20 14h45.33.998174 +0530,
94,0,94,0,599.375006900169,,,,,,,,,599.3595937001519,599.375006900169,599.8752470999025,599.8752470999025,600.3757655997761,600.3601222001016,600.3601385001093,605.3650567000732,"['n', 'o', 'o', 'l']","[0.6795371999032795, 1.4858284001238644, 1.7054173001088202, 2.379646500106901]","[0.07985279988497496, 0.06595469964668155, 0.07951929979026318, 0.07607359997928143]",1,NOOL,"['n', 'o', 'o', 'l']",False,839174,001,2024-11-20_14h45.27.874,PartialReportMethod,2024.1.5,None,2024-11-20 14h45.33.998174 +0530,
95,0,95,0,605.3814385998994,,,,,,,,,605.3658841997385,605.3814385998994,605.8825018000789,605.8825018000789,606.3823301000521,606.3669658997096,606.3669813000597,611.3711099000648,['l'],[0.9423481002449989],[0.0828031999990344],0,JPZT,['l'],False,839174,001,2024-11-20_14h45.27.874,PartialReportMethod,2024.1.5,None,2024-11-20 14h45.33.998174 +0530,
96,0,96,0,611.3880587001331,,,,,,,,,611.3720358000137,611.3880587001331,611.8719243998639,611.88859029999,612.3722354997881,612.3566107000224,612.3566239001229,617.361799299717,['w'],[0.8424642002210021],[0.08516849996522069],0,GFRO,['w'],False,839174,001,2024-11-20_14h45.27.874,PartialReportMethod,2024.1.5,None,2024-11-20 14h45.33.998174 +0530,
97,0,97,0,617.3774792999029,,,,,,,,,617.3628553999588,617.3774792999029,617.8784062997438,617.8784062997438,618.3791283001192,618.3634092998691,618.3634236999787,623.3680519997142,"['e', 'v']","[0.6231472999788821, 1.3218124001286924]","[0.10325910011306405, 0.07421120023354888]",2,EVXY,"['e', 'v']",False,839174,001,2024-11-20_14h45.27.874,PartialReportMethod,2024.1.5,None,2024-11-20 14h45.33.998174 +0530,
98,0,98,0,623.3847436001524,,,,,,,,,623.3692863998003,623.3847436001524,623.8687434000894,623.8852089997381,624.3689768998884,624.3532059998251,624.3532217997126,629.3584704999812,"['g', 'u']","[1.1863672998733819, 1.460150099825114]","[0.12261610012501478, 0.10021100006997585]",0,GUJX,"['g', 'u']",False,839174,001,2024-11-20_14h45.27.874,PartialReportMethod,2024.1.5,None,2024-11-20 14h45.33.998174 +0530,
99,0,99,0,629.3746115998365,,,,,,,,,629.360272299964,629.3746115998365,629.874906399753,629.874906399753,630.3758832998574,630.3598997001536,630.3599155000411,635.3650166997686,"['t', 'b']","[0.5331613998860121, 0.7854944998398423]","[0.08161019999533892, 0.09263860015198588]",1,TBIJ,"['t', 'b']",False,839174,001,2024-11-20_14h45.27.874,PartialReportMethod,2024.1.5,None,2024-11-20 14h45.33.998174 +0530,
